# Sensor type: Respeck
# Activity type: Sitting
# Activity code: 0
# Subject id: s1956488
# Notes: 1
timestamp,accel_x,accel_y,accel_z,gyro_x,gyro_y,gyro_z
1664720958492,-0.08251953,-0.973938,0.20892334,-1.703125,0.9375,-1.109375
1664720958575,-0.068603516,-0.9976196,0.20599365,-2.0625,1.3125,-1.109375
1664720958583,-0.08496094,-0.97857666,0.20892334,-1.125,-0.015625,-1.1875
1664720958618,-0.095947266,-0.97613525,0.20159912,-2.640625,0.578125,-0.625
1664720958694,-0.10644531,-0.9639282,0.21990967,-3.0625,0.984375,0.0
1664720958698,-0.103515625,-0.96832275,0.22479248,-4.203125,1.734375,0.25
1664720958733,-0.06982422,-0.9890747,0.22796631,-3.0,2.71875,-0.796875
1664720958776,-0.076416016,-0.9939575,0.21380615,0.34375,2.3125,-2.546875
1664720958837,-0.0871582,-0.9780884,0.22503662,0.96875,2.71875,-2.484375
1664720958865,-0.09814453,-0.9727173,0.21795654,0.921875,2.09375,-1.75
1664720958885,-0.11328125,-0.97491455,0.23284912,-1.8125,2.234375,-1.421875
1664720958929,-0.107910156,-0.9819946,0.21966553,-1.765625,3.0,-0.28125
1664720959011,-0.0859375,-0.9692993,0.24359131,-2.046875,2.703125,-1.015625
1664720959014,-0.09350586,-0.9920044,0.24749756,3.171875,2.296875,-2.234375
1664720959052,-0.109375,-0.9692993,0.22894287,3.640625,2.265625,-1.578125
1664720959085,-0.11010742,-0.9639282,0.22894287,-1.765625,1.640625,0.40625
1664720959167,-0.10424805,-0.98931885,0.23431396,-1.5,1.171875,0.53125
1664720959170,-0.0871582,-0.9973755,0.21307373,2.234375,1.75,-0.9375
1664720959213,-0.0925293,-0.96881104,0.21844482,-0.09375,1.203125,-1.3125
1664720959240,-0.109375,-0.98272705,0.21478271,-0.5625,0.671875,-0.5
1664720959326,-0.114990234,-0.96343994,0.23236084,-2.90625,0.609375,-0.328125
1664720959328,-0.107666016,-0.97540283,0.24383545,-2.359375,0.0,0.453125
1664720959362,-0.10888672,-0.9680786,0.24603271,-0.8125,1.359375,-0.265625
1664720959460,-0.12036133,-0.9631958,0.23504639,0.0625,0.875,0.140625
1664720959462,-0.11010742,-0.97052,0.24871826,-0.84375,1.640625,0.53125
1664720959487,-0.11230469,-0.97003174,0.2411499,1.0,2.296875,0.171875
1664720959524,-0.088134766,-1.0025024,0.24993896,-0.625,3.09375,-0.53125
1664720959608,-0.087890625,-1.0098267,0.23065186,0.375,4.53125,-4.125
1664720959612,-0.12768555,-0.9561157,0.22528076,2.671875,1.75,-2.53125
1664720959671,-0.16064453,-0.9192505,0.23260498,-1.984375,2.0625,-0.71875
1664720959689,-0.10668945,-0.9673462,0.25286865,-3.75,2.359375,0.203125
1664720959765,-0.115722656,-0.9800415,0.24554443,0.15625,1.328125,-0.65625
1664720959797,-0.1274414,-0.96759033,0.24725342,-0.609375,1.84375,-0.828125
1664720959803,-0.13110352,-0.96832275,0.26531982,-0.25,0.765625,0.359375
1664720959831,-0.11010742,-0.97540283,0.25457764,-0.796875,2.015625,0.09375
1664720959921,-0.13500977,-0.9522095,0.24505615,1.859375,1.53125,-0.65625
1664720959924,-0.12207031,-0.96539307,0.27264404,5.6875,0.109375,1.59375
1664720959969,-0.12133789,-0.9841919,0.24627686,7.4375,2.71875,0.921875
1664720959995,-0.12719727,-0.97613525,0.22381592,6.296875,4.5625,-0.921875
1664720960081,-0.13110352,-0.9871216,0.22039795,8.5,3.046875,1.203125
1664720960085,-0.1015625,-0.9746704,0.20819092,11.359375,3.734375,0.828125
1664720960115,-0.10986328,-0.9846802,0.1774292,6.4375,3.109375,-0.125
1664720960203,-0.12084961,-0.9758911,0.1696167,4.078125,-2.171875,0.65625
1664720960229,-0.10986328,-0.9807739,0.16400146,1.125,-3.421875,2.578125
1664720960251,-0.11401367,-0.9866333,0.1630249,1.28125,-3.59375,1.40625
1664720960268,-0.09790039,-0.98687744,0.1749878,2.046875,-1.75,1.59375
1664720960359,-0.10864258,-0.9795532,0.1798706,1.4375,-2.4375,0.625
1664720960364,-0.10986328,-0.98321533,0.16864014,-0.734375,-0.265625,-0.078125
1664720960394,-0.11328125,-0.98443604,0.17889404,-1.796875,-0.265625,-0.390625
1664720960427,-0.12646484,-0.9812622,0.19500732,-0.703125,-0.421875,0.078125
1664720960521,-0.1274414,-0.986145,0.18963623,-1.0,0.5,0.53125
1664720960524,-0.10083008,-0.9873657,0.18011475,-0.96875,1.375,0.09375
1664720960552,-0.119140625,-0.9932251,0.17449951,0.65625,0.84375,0.0
1664720960612,-0.11694336,-0.97662354,0.184021,-1.4375,1.984375,-0.703125
1664720960698,-0.10473633,-0.98809814,0.17474365,0.296875,0.828125,-0.546875
1664720960707,-0.11303711,-0.98101807,0.18060303,-1.640625,1.078125,-0.890625
1664720960713,-0.11376953,-0.9993286,0.18060303,0.578125,0.078125,0.171875
1664720960742,-0.1159668,-0.9885864,0.184021,0.28125,1.0,-0.671875
1664720960836,-0.123291016,-0.97784424,0.18084717,1.03125,1.015625,-0.28125
1664720960843,-0.12158203,-0.96832275,0.1828003,0.265625,1.90625,-0.03125
1664720960868,-0.1274414,-0.987854,0.18939209,1.125,1.015625,0.859375
1664720960968,-0.13330078,-0.96588135,0.18743896,0.90625,1.421875,0.609375
1664720960971,-0.1352539,-0.9807739,0.19451904,1.265625,1.078125,2.09375
1664720960997,-0.11694336,-0.98223877,0.1942749,3.53125,0.5,2.84375
1664720961021,-0.13305664,-0.98883057,0.1828003,3.890625,0.53125,3.421875
1664720961111,-0.10571289,-0.97198486,0.18328857,3.453125,0.75,3.0625
1664720961114,-0.1159668,-0.97662354,0.17059326,4.296875,0.671875,3.4375
1664720961151,-0.10449219,-0.9800415,0.15765381,3.515625,0.671875,3.765625
1664720961190,-0.09863281,-0.99053955,0.14886475,3.90625,0.828125,4.40625
1664720961274,-0.08862305,-0.986145,0.15179443,1.921875,1.625,3.625
1664720961278,-0.084472656,-0.99102783,0.15325928,3.53125,1.234375,3.171875
1664720961304,-0.095947266,-0.9805298,0.15228271,2.53125,1.90625,2.859375
1664720961343,-0.08178711,-1.0093384,0.13568115,3.578125,1.046875,3.953125
1664720961427,-0.06933594,-0.9924927,0.13446045,3.203125,1.875,3.03125
1664720961432,-0.076171875,-0.99957275,0.12225342,3.046875,1.796875,2.9375
1664720961462,-0.07055664,-0.99835205,0.11785889,2.125,1.8125,2.59375
1664720961501,-0.05908203,-1.0095825,0.120788574,1.90625,1.421875,2.328125
1664720961600,-0.063964844,-0.9956665,0.11151123,1.4375,1.578125,1.625
1664720961604,-0.056396484,-0.9990845,0.1083374,1.265625,1.578125,1.65625
1664720961633,-0.041503906,-0.9949341,0.113220215,1.453125,1.375,1.578125
1664720961707,-0.050048828,-1.0037231,0.11248779,0.96875,1.515625,1.296875
1664720961711,-0.048828125,-1.0020142,0.112976074,0.359375,0.984375,0.78125
1664720961741,-0.05053711,-1.0042114,0.11932373,-0.359375,1.578125,0.484375
1664720961789,-0.055908203,-0.9993286,0.12225342,-0.671875,1.484375,0.65625
1664720961868,-0.055419922,-1.0037231,0.11663818,0.453125,0.96875,0.578125
1664720961872,-0.049560547,-0.99005127,0.12298584,-1.34375,1.609375,0.328125
1664720961900,-0.05493164,-0.9998169,0.12176514,0.046875,1.15625,-0.015625
1664720961933,-0.047851562,-0.9866333,0.12445068,-1.453125,1.296875,-0.109375
1664720962025,-0.0546875,-1.0056763,0.12249756,-0.3125,0.46875,0.546875
1664720962027,-0.05053711,-0.9981079,0.12982178,-0.84375,1.578125,-0.09375
1664720962055,-0.057617188,-0.9968872,0.12591553,-0.375,1.265625,-0.15625
1664720962093,-0.053466797,-0.9890747,0.1251831,-0.578125,1.359375,-0.109375
1664720962197,-0.055664062,-0.9939575,0.12322998,0.015625,1.0625,0.03125
1664720962199,-0.061523438,-0.99713135,0.13812256,-0.578125,1.296875,-0.3125
1664720962231,-0.061523438,-0.99664307,0.12835693,-0.296875,1.140625,0.21875
1664720962246,-0.05883789,-0.9902954,0.13153076,-0.25,1.15625,0.03125
1664720962352,-0.061767578,-0.989563,0.13885498,0.234375,1.4375,0.1875
1664720962356,-0.055908203,-1.00177,0.13446045,0.234375,0.765625,0.375
1664720962371,-0.059326172,-0.99957275,0.13421631,0.265625,0.984375,0.546875
1664720962459,-0.056152344,-0.99957275,0.13128662,0.125,0.625,0.171875
1664720962463,-0.05517578,-0.989563,0.1281128,0.078125,1.203125,0.15625
1664720962495,-0.05102539,-0.9885864,0.12615967,-0.484375,1.0625,0.25
1664720962528,-0.06323242,-1.00177,0.13568115,-0.15625,0.859375,0.5625
1664720962618,-0.045654297,-0.9949341,0.1305542,-1.0625,1.65625,0.109375
1664720962621,-0.057617188,-0.9985962,0.1408081,0.25,0.734375,-0.375
1664720962651,-0.06323242,-0.9890747,0.13519287,-0.796875,1.546875,-0.078125
1664720962686,-0.060546875,-0.99957275,0.13568115,0.40625,0.484375,0.8125
1664720962776,-0.05883789,-0.9883423,0.14056396,-0.78125,1.15625,0.34375
1664720962779,-0.06665039,-0.9846802,0.1408081,0.09375,1.21875,0.28125
1664720962810,-0.055419922,-0.9949341,0.13812256,0.765625,1.15625,0.390625
1664720962844,-0.0546875,-0.987854,0.13934326,1.765625,0.53125,0.796875
1664720962944,-0.047607422,-0.9907837,0.13983154,1.90625,0.5625,0.90625
1664720962947,-0.057128906,-0.9937134,0.13446045,1.65625,0.703125,0.8125
1664720962964,-0.056640625,-0.99664307,0.1281128,0.890625,0.71875,1.25
1664720963005,-0.05444336,-0.99420166,0.13641357,1.390625,1.328125,0.875
1664720963093,-0.05908203,-0.9924927,0.12542725,0.9375,1.1875,0.890625
1664720963097,-0.045654297,-0.9949341,0.13568115,1.03125,1.5625,0.953125
1664720963128,-0.05834961,-0.99102783,0.12860107,2.140625,1.109375,1.296875
1664720963219,-0.045898438,-1.0005493,0.121032715,2.1875,1.46875,1.609375
1664720963223,-0.044921875,-0.9937134,0.1227417,1.421875,1.375,1.3125
1664720963263,-0.049316406,-1.0046997,0.11639404,2.515625,1.40625,1.28125
1664720963313,-0.040283203,-0.99224854,0.11932373,1.109375,1.9375,1.234375
1664720963382,-0.036621094,-1.003479,0.10223389,2.125,1.28125,0.828125
1664720963386,-0.041259766,-0.9885864,0.10760498,0.640625,1.171875,0.96875
1664720963404,-0.037109375,-1.003479,0.10784912,1.53125,0.6875,1.1875
1664720963438,-0.040039062,-0.9956665,0.105895996,0.296875,1.703125,0.421875
1664720963527,-0.041259766,-0.98931885,0.10687256,0.796875,1.171875,0.65625
1664720963529,-0.038330078,-0.99542236,0.10003662,0.640625,1.1875,0.859375
1664720963562,-0.034179688,-1.0015259,0.10662842,0.90625,0.796875,0.90625
1664720963602,-0.036376953,-0.99468994,0.1005249,0.171875,1.125,0.34375
1664720963695,-0.033691406,-1.0010376,0.10394287,0.046875,1.03125,0.59375
1664720963699,-0.033691406,-0.9956665,0.10296631,-0.4375,1.234375,0.109375
1664720963733,-0.034179688,-0.9939575,0.10345459,-0.625,1.234375,0.109375
1664720963752,-0.037841797,-0.9902954,0.109313965,-0.609375,0.9375,0.328125
1664720963845,-0.033447266,-0.9927368,0.11932373,-1.078125,1.34375,0.171875
1664720963847,-0.037597656,-0.9993286,0.113220215,-0.78125,1.125,-0.046875
1664720963877,-0.032958984,-0.99468994,0.12054443,0.5,0.59375,0.296875
1664720963976,-0.037109375,-0.99420166,0.10784912,1.203125,0.953125,0.046875
1664720963980,-0.03491211,-0.99053955,0.1149292,0.28125,0.953125,0.203125
1664720964000,-0.035888672,-0.9961548,0.11468506,-0.296875,1.828125,-0.09375
1664720964033,-0.04638672,-1.0007935,0.11639404,0.234375,0.625,0.65625
1664720964139,-0.036376953,-1.0020142,0.11907959,0.375,0.984375,0.65625
1664720964143,-0.040771484,-0.9968872,0.10736084,-0.140625,1.59375,0.203125
1664720964171,-0.037109375,-0.99786377,0.117126465,0.328125,0.796875,0.765625
1664720964193,-0.03125,-0.9915161,0.11981201,0.59375,1.125,0.671875
1664720964282,-0.03564453,-0.9939575,0.10809326,0.46875,0.9375,0.78125
1664720964287,-0.033691406,-0.9939575,0.11175537,0.3125,1.03125,1.046875
1664720964315,-0.03540039,-1.00177,0.10491943,0.4375,1.125,1.046875
1664720964346,-0.027832031,-0.99176025,0.11053467,0.453125,1.34375,1.28125
1664720964447,-0.02758789,-0.99713135,0.11199951,0.5625,1.203125,0.890625
1664720964450,-0.03149414,-0.99835205,0.11248779,0.3125,1.703125,0.8125
1664720964472,-0.02734375,-0.9990845,0.113464355,0.125,1.375,0.640625
1664720964504,-0.03540039,-0.99176025,0.11541748,0.34375,1.390625,0.890625
1664720964603,-0.020019531,-0.99468994,0.113708496,0.5625,1.453125,0.890625
1664720964607,-0.030273438,-0.991272,0.11224365,0.5,1.328125,0.859375
1664720964635,-0.021484375,-0.99957275,0.105163574,0.4375,1.4375,0.890625
1664720964722,-0.0234375,-0.99835205,0.11199951,-0.015625,1.265625,0.734375
1664720964726,-0.022949219,-0.9985962,0.097839355,-0.078125,2.109375,0.453125
1664720964776,-0.024902344,-0.9968872,0.116882324,0.171875,0.859375,0.734375
1664720964784,-0.024658203,-1.0049438,0.10687256,0.453125,1.34375,0.71875
1664720964880,-0.018798828,-0.9968872,0.11224365,-0.15625,1.515625,0.46875
1664720964883,-0.022460938,-0.99835205,0.11419678,0.296875,1.53125,0.71875
1664720964907,-0.026611328,-0.99298096,0.109313965,0.078125,1.265625,0.625
1664720964963,-0.014892578,-0.9968872,0.10784912,-0.171875,1.296875,0.53125
1664720965037,-0.017822266,-0.9973755,0.1161499,-0.328125,1.46875,0.140625
1664720965041,-0.022460938,-0.99298096,0.11639404,0.140625,1.359375,0.46875
1664720965074,-0.017089844,-1.0022583,0.11004639,-0.28125,1.453125,0.25
1664720965100,-0.018798828,-1.0010376,0.109558105,-0.421875,1.484375,0.1875
1664720965187,-0.016845703,-0.986145,0.1149292,-0.140625,1.171875,0.0625
1664720965191,-0.020019531,-1.0003052,0.10882568,-0.578125,1.453125,-0.21875
1664720965226,-0.0126953125,-1.0044556,0.11151123,-1.015625,1.609375,-0.375
1664720965264,-0.0146484375,-0.9998169,0.11859131,-0.921875,1.234375,-0.25
1664720965348,-0.015136719,-0.99420166,0.11907959,-0.78125,1.09375,-0.046875
1664720965351,-0.021972656,-0.99835205,0.11663818,-0.671875,1.25,-0.546875
1664720965401,-0.01977539,-0.99102783,0.121276855,-0.546875,1.09375,-0.53125
1664720965517,-0.024902344,-0.9990845,0.117614746,-0.375,1.359375,-0.8125
1664720965522,-0.030517578,-0.9961548,0.12615967,-0.125,0.296875,-0.09375
1664720965539,-0.026855469,-0.99224854,0.12225342,0.046875,0.84375,-0.03125
1664720965547,-0.028808594,-0.99420166,0.13275146,-0.296875,0.90625,-0.21875
1664720965628,-0.030273438,-0.99102783,0.1281128,1.09375,0.96875,-0.234375
1664720965632,-0.028808594,-0.99053955,0.11907959,0.859375,0.140625,-0.140625
1664720965660,-0.032958984,-0.9902954,0.12322998,0.734375,-0.453125,0.28125
1664720965698,-0.030517578,-0.99176025,0.12420654,0.84375,-0.0625,-0.015625
1664720965799,-0.028564453,-0.9927368,0.11932373,2.21875,0.21875,0.28125
1664720965801,-0.03149414,-0.99835205,0.11566162,2.28125,1.078125,0.21875
1664720965816,-0.028808594,-0.9944458,0.1149292,1.609375,1.703125,0.046875
1664720965851,-0.023925781,-1.0029907,0.11541748,1.875,0.8125,0.359375
1664720965952,-0.029785156,-0.99420166,0.10467529,2.375,0.9375,0.265625
1664720965955,-0.0234375,-1.0010376,0.09832764,2.0,1.03125,0.125
1664720965974,-0.032470703,-0.99053955,0.1149292,2.34375,-0.015625,0.484375
1664720966010,-0.03149414,-0.9981079,0.109802246,2.296875,0.359375,0.59375
1664720966096,-0.027832031,-1.006897,0.08807373,1.4375,1.53125,-0.03125
1664720966098,-0.029785156,-0.99468994,0.098083496,1.234375,1.203125,0.171875
1664720966133,-0.036132812,-0.9985962,0.10491943,1.796875,0.15625,1.0625
1664720966171,-0.03125,-1.0010376,0.09173584,1.875,1.203125,0.640625
1664720966257,-0.028564453,-0.99176025,0.089538574,0.765625,1.125,0.171875
1664720966260,-0.028808594,-0.99176025,0.08929443,1.3125,0.65625,0.328125
1664720966288,-0.030273438,-1.0027466,0.086364746,1.578125,0.234375,0.703125
1664720966397,-0.026123047,-0.9968872,0.08270264,0.0625,1.09375,0.21875
1664720966399,-0.033691406,-0.99542236,0.090270996,0.578125,0.5,0.265625
1664720966422,-0.027832031,-1.00177,0.08343506,0.671875,0.703125,0.421875
1664720966447,-0.026855469,-0.9951782,0.078063965,-0.296875,0.828125,-0.125
1664720966536,-0.028808594,-1.0010376,0.085876465,-0.75,1.296875,-0.140625
1664720966540,-0.030517578,-0.9937134,0.08050537,-1.0,1.171875,-0.09375
1664720966569,-0.02734375,-0.9981079,0.08709717,-1.578125,1.25,-0.265625
1664720966605,-0.030517578,-0.99102783,0.101501465,-1.734375,0.796875,-0.3125
1664720966702,-0.032470703,-1.0044556,0.098083496,-1.609375,0.859375,0.078125
1664720966705,-0.026123047,-0.99468994,0.1071167,-2.6875,1.03125,-0.40625
1664720966729,-0.038085938,-0.99468994,0.10247803,-1.78125,1.046875,-0.125
1664720966761,-0.03173828,-0.98883057,0.10491943,-2.609375,0.875,-0.25
1664720966851,-0.03515625,-1.0020142,0.11444092,-0.484375,0.5625,0.125
1664720966854,-0.032714844,-0.9902954,0.11395264,-1.65625,1.640625,-0.25
1664720966886,-0.03930664,-0.9898071,0.1149292,-1.09375,1.5625,-0.203125
1664720966922,-0.03491211,-0.9951782,0.11468506,-0.9375,1.53125,0.046875
1664720967018,-0.03857422,-0.9963989,0.117614746,-0.21875,1.546875,0.21875
1664720967026,-0.036621094,-0.99176025,0.1161499,-1.1875,1.78125,-0.109375
1664720967041,-0.034423828,-0.99786377,0.11883545,-0.390625,1.1875,0.1875
1664720967143,-0.033935547,-0.9939575,0.117614746,-0.234375,1.453125,0.15625
1664720967147,-0.03173828,-0.9932251,0.12005615,-0.390625,1.265625,0.140625
1664720967169,-0.040283203,-0.9932251,0.112976074,-0.421875,1.34375,0.171875
1664720967200,-0.030029297,-0.9976196,0.12640381,-0.296875,1.28125,0.1875
1664720967302,-0.038330078,-0.99542236,0.12005615,-0.28125,1.359375,0.078125
1664720967306,-0.040527344,-0.99053955,0.1251831,-0.515625,1.1875,0.03125
1664720967329,-0.036132812,-0.99884033,0.11663818,-0.09375,1.09375,0.34375
1664720967356,-0.037597656,-0.99005127,0.13323975,-0.9375,1.25,0.25
1664720967462,-0.036376953,-1.00177,0.12347412,0.609375,1.234375,0.03125
1664720967464,-0.037353516,-0.99053955,0.12249756,-1.0625,1.296875,0.109375
1664720967483,-0.04272461,-1.0012817,0.12908936,0.09375,0.453125,0.515625
1664720967520,-0.036621094,-0.9859009,0.1281128,-0.28125,1.34375,0.03125
1664720967610,-0.036376953,-0.9924927,0.13104248,0.515625,1.265625,0.234375
1664720967612,-0.0390625,-0.99224854,0.12786865,0.359375,1.21875,0.234375
1664720967641,-0.038085938,-0.99420166,0.13397217,0.984375,1.046875,0.546875
1664720967686,-0.029541016,-0.99346924,0.12982178,1.53125,1.34375,0.296875
1664720967764,-0.03491211,-1.003479,0.121520996,1.859375,0.96875,0.3125
1664720967768,-0.032470703,-0.9924927,0.11907959,1.671875,0.90625,0.5
1664720967795,-0.03540039,-0.99176025,0.117126465,1.3125,0.90625,0.703125
1664720967897,-0.037353516,-0.9939575,0.117370605,1.234375,1.34375,0.609375
1664720967900,-0.034423828,-0.9944458,0.1149292,1.75,1.359375,0.15625
1664720967921,-0.033447266,-0.9985962,0.11077881,2.328125,1.296875,0.28125
1664720967974,-0.03100586,-0.99420166,0.101257324,2.1875,1.375,0.625
1664720968040,-0.030761719,-0.9885864,0.113220215,1.96875,0.9375,0.859375
1664720968041,-0.03466797,-1.0088501,0.09979248,2.671875,1.265625,0.546875
1664720968075,-0.033203125,-0.9885864,0.10223389,1.46875,0.984375,0.515625
1664720968111,-0.037841797,-0.9990845,0.09857178,1.78125,0.796875,0.234375
1664720968203,-0.029052734,-0.9924927,0.09906006,1.8125,0.484375,0.625
1664720968206,-0.025146484,-1.0066528,0.0914917,1.921875,0.625,0.671875
1664720968235,-0.026611328,-0.98565674,0.09246826,0.609375,1.125,0.1875
1664720968268,-0.032958984,-0.99102783,0.08782959,1.65625,0.15625,0.671875
1664720968371,-0.026367188,-0.9915161,0.09124756,1.09375,0.71875,0.828125
1664720968374,-0.033935547,-1.005188,0.08148193,1.46875,0.46875,0.65625
1664720968395,-0.034423828,-0.9985962,0.09051514,1.015625,0.578125,0.421875
1664720968427,-0.033203125,-1.0037231,0.08807373,1.421875,0.484375,0.734375
1664720968534,-0.024902344,-0.9990845,0.08392334,1.59375,0.796875,0.453125
1664720968537,-0.024658203,-0.9932251,0.07928467,0.84375,0.796875,0.1875
1664720968548,-0.025878906,-0.99957275,0.081970215,0.40625,0.671875,0.125
1664720968648,-0.03173828,-0.9981079,0.082458496,0.1875,0.828125,0.25
1664720968651,-0.024414062,-1.0003052,0.08319092,-1.0,0.953125,-0.109375
1664720968671,-0.02734375,-1.0020142,0.086120605,-1.359375,0.875,-0.015625
1664720968707,-0.030761719,-0.9956665,0.10003662,-0.9375,1.046875,-0.125
1664720968790,-0.030273438,-1.0042114,0.08099365,-1.046875,1.59375,-0.078125
1664720968791,-0.0234375,-0.99102783,0.09857178,-2.265625,1.3125,-0.421875
1664720968830,-0.03857422,-1.0010376,0.09588623,-0.71875,1.03125,-0.109375
1664720968867,-0.03564453,-0.9932251,0.09466553,-1.859375,0.953125,0.0625
1664720968956,-0.03149414,-1.0044556,0.08905029,-0.921875,0.765625,-0.109375
1664720968959,-0.03491211,-0.9937134,0.097595215,-1.8125,1.1875,-0.421875
1664720968984,-0.034423828,-1.0046997,0.09637451,-1.703125,0.90625,0.046875
1664720969024,-0.024658203,-0.98883057,0.109313965,-2.390625,0.875,0.140625
1664720969130,-0.032226562,-1.0112915,0.1083374,-2.078125,0.75,0.046875
1664720969133,-0.03125,-0.99102783,0.11029053,-3.578125,1.4375,-0.4375
1664720969151,-0.03857422,-0.9885864,0.1227417,-1.703125,1.0625,-0.0625
1664720969179,-0.038330078,-0.98883057,0.12347412,-1.203125,1.65625,-0.125
1664720969273,-0.03466797,-0.99713135,0.11810303,-1.15625,1.46875,-0.046875
1664720969276,-0.04248047,-0.9907837,0.11981201,-1.109375,1.421875,-0.109375
1664720969301,-0.038330078,-1.000061,0.117126465,-0.34375,2.390625,0.078125
1664720969402,-0.036865234,-0.9937134,0.12615967,-0.140625,1.96875,0.15625
1664720969415,-0.03881836,-0.9902954,0.12713623,-0.40625,2.234375,-0.015625
1664720969422,-0.04248047,-0.99224854,0.12957764,-0.71875,1.75,0.03125
1664720969458,-0.033935547,-0.9993286,0.117370605,0.171875,2.546875,0.0
1664720969552,-0.041503906,-0.9951782,0.12957764,-0.140625,2.234375,0.1875
1664720969555,-0.036376953,-0.99591064,0.13421631,-0.765625,1.90625,0.390625
1664720969605,-0.033935547,-0.99664307,0.12835693,-0.375,2.953125,-0.0625
1664720969629,-0.036621094,-1.0022583,0.12664795,0.9375,2.34375,0.171875
1664720969702,-0.029541016,-0.9961548,0.11956787,-0.78125,2.625,-0.1875
1664720969704,-0.049316406,-1.0003052,0.13031006,0.65625,1.734375,0.40625
1664720969743,-0.033447266,-0.99298096,0.13446045,0.375,2.59375,0.265625
1664720969782,-0.041259766,-0.9981079,0.12420654,0.140625,2.546875,-0.296875
1664720969878,-0.036865234,-0.9859009,0.12786865,0.03125,2.515625,0.125
1664720969883,-0.03540039,-0.9993286,0.1281128,-0.125,1.6875,0.21875
1664720969910,-0.03100586,-0.9985962,0.12689209,-0.421875,1.96875,-0.078125
1664720969930,-0.041259766,-0.99224854,0.13250732,-0.734375,2.390625,-0.203125
1664720970028,-0.03491211,-0.99591064,0.13983154,-0.296875,1.625,0.34375
1664720970031,-0.036132812,-0.9985962,0.13641357,0.125,2.09375,0.21875
1664720970053,-0.036621094,-0.98931885,0.13519287,-0.15625,1.796875,0.046875
1664720970144,-0.039794922,-0.9998169,0.13812256,0.234375,2.0,0.234375
1664720970147,-0.0390625,-0.9902954,0.13519287,-0.046875,1.4375,0.375
1664720970176,-0.037841797,-0.9968872,0.13519287,0.109375,1.65625,-0.015625
1664720970224,-0.040283203,-0.9837036,0.13885498,-0.265625,1.125,0.03125
1664720970302,-0.03955078,-0.99346924,0.13690186,-0.5,1.3125,0.453125
1664720970305,-0.030029297,-0.9968872,0.13543701,-0.109375,0.8125,0.3125
1664720970331,-0.037109375,-0.9944458,0.13690186,-0.03125,1.21875,0.234375
1664720970375,-0.040771484,-0.9927368,0.14007568,-0.125,1.109375,0.09375
1664720970465,-0.040527344,-0.98809814,0.14324951,0.515625,0.9375,0.3125
1664720970468,-0.04296875,-0.9961548,0.14178467,-0.265625,1.515625,0.015625
1664720970515,-0.040527344,-0.9956665,0.137146,0.609375,1.046875,0.203125
1664720970533,-0.036865234,-0.9873657,0.13616943,-0.109375,1.671875,-0.15625
1664720970616,-0.047607422,-0.9981079,0.1437378,1.671875,0.859375,0.671875
1664720970623,-0.036376953,-0.9898071,0.14349365,2.828125,1.625,0.484375
1664720970649,-0.037109375,-0.9920044,0.13079834,1.828125,2.421875,0.125
1664720970689,-0.041992188,-0.99298096,0.13470459,1.71875,1.59375,0.609375
1664720970772,-0.037841797,-0.9932251,0.13226318,1.625,1.875,0.515625
1664720970775,-0.029296875,-0.99835205,0.12786865,2.015625,1.890625,0.421875
1664720970822,-0.041015625,-0.99053955,0.12542725,2.75,1.59375,0.546875
1664720970898,-0.03955078,-1.0007935,0.11273193,1.59375,1.421875,1.25
1664720970902,-0.03173828,-0.9973755,0.12322998,1.9375,1.484375,0.53125
1664720970932,-0.025634766,-0.99884033,0.11224365,3.09375,1.703125,0.703125
1664720970967,-0.03173828,-1.0012817,0.10394287,3.046875,1.109375,0.359375
1664720971059,-0.03100586,-0.9968872,0.10809326,2.28125,1.09375,0.53125
1664720971062,-0.02758789,-0.99176025,0.10321045,2.265625,0.890625,0.75
1664720971087,-0.036865234,-0.99346924,0.098083496,1.140625,0.875,0.453125
1664720971120,-0.025878906,-1.0007935,0.09295654,0.8125,1.71875,-0.0625
1664720971207,-0.029785156,-0.9937134,0.11151123,1.0625,1.390625,-0.09375
1664720971210,-0.044921875,-0.99713135,0.10296631,1.296875,1.5,-0.328125
1664720971240,-0.040039062,-1.0027466,0.089782715,0.53125,1.046875,0.484375
1664720971297,-0.021728516,-0.98883057,0.10076904,-0.84375,1.28125,0.09375
1664720971376,-0.047851562,-0.9956665,0.093933105,1.609375,1.125,-0.234375
1664720971378,-0.03955078,-0.9907837,0.09857178,0.375,0.515625,0.734375
1664720971403,-0.030761719,-1.0105591,0.089538574,0.453125,0.3125,0.28125
1664720971436,-0.037353516,-0.9885864,0.08929443,-0.84375,1.21875,-0.296875
1664720971527,-0.03125,-1.0005493,0.089538574,-1.171875,0.671875,-0.1875
1664720971531,-0.032226562,-0.99102783,0.09979248,-1.953125,0.296875,0.03125
1664720971557,-0.040771484,-1.00177,0.10638428,-1.125,0.203125,0.15625
1664720971652,-0.0390625,-0.99053955,0.10467529,-2.390625,0.96875,-0.515625
1664720971659,-0.03857422,-0.9973755,0.113220215,-1.796875,0.5,-0.171875
1664720971680,-0.041992188,-0.9990845,0.11175537,-1.59375,0.796875,0.078125
1664720971715,-0.030517578,-0.9990845,0.117126465,-1.046875,0.625,0.0625
1664720971807,-0.032958984,-0.99835205,0.113464355,-0.828125,0.640625,0.0625
1664720971812,-0.042236328,-0.99664307,0.11956787,-1.09375,0.90625,0.09375
1664720971840,-0.03857422,-1.00177,0.11859131,-0.578125,0.65625,0.1875
1664720971873,-0.036621094,-0.99835205,0.121032715,-0.671875,1.109375,-0.109375
1664720971964,-0.04248047,-0.9951782,0.11932373,-0.9375,1.328125,0.234375
1664720971969,-0.043945312,-0.99664307,0.12249756,-0.296875,1.453125,0.34375
1664720971999,-0.033203125,-0.9990845,0.11956787,-1.328125,1.65625,-0.125
1664720972033,-0.042236328,-0.99664307,0.124938965,0.0625,1.078125,0.078125
1664720972122,-0.04321289,-0.99176025,0.12591553,-1.296875,1.578125,-0.046875
1664720972130,-0.040039062,-1.0037231,0.1281128,-0.0625,0.75,0.6875
1664720972153,-0.03857422,-0.9956665,0.12762451,-0.453125,1.28125,0.296875
1664720972187,-0.041992188,-0.98931885,0.1305542,-0.546875,1.328125,0.296875
1664720972277,-0.033203125,-0.9927368,0.13031006,-0.203125,1.265625,0.4375
1664720972281,-0.034179688,-0.9939575,0.12957764,-0.171875,1.078125,0.3125
1664720972312,-0.03881836,-0.9976196,0.13323975,-0.484375,1.359375,0.265625
1664720972402,-0.040771484,-0.99346924,0.13665771,-0.328125,1.359375,0.125
1664720972406,-0.041259766,-0.99224854,0.13763428,0.21875,0.8125,0.5
1664720972435,-0.045166016,-0.99224854,0.13348389,0.390625,1.34375,0.34375
1664720972468,-0.041015625,-0.99713135,0.13323975,0.515625,1.25,0.65625
1664720972558,-0.037109375,-0.9924927,0.11907959,-0.21875,1.296875,0.90625
1664720972561,-0.03100586,-0.99420166,0.13446045,-0.4375,1.09375,0.78125
1664720972592,-0.037597656,-0.99346924,0.13446045,0.21875,1.484375,0.125
1664720972626,-0.03100586,-0.9973755,0.13421631,0.25,1.390625,0.0
1664720972714,-0.034179688,-0.99053955,0.13470459,-0.296875,1.234375,-0.171875
1664720972719,-0.04321289,-0.9939575,0.1437378,0.6875,1.09375,0.21875
1664720972747,-0.037597656,-0.99176025,0.13201904,-0.109375,1.90625,0.03125
1664720972781,-0.038085938,-1.0007935,0.13641357,0.578125,1.0,0.1875
1664720972871,-0.033447266,-0.991272,0.12713623,-1.140625,1.46875,-0.3125
1664720972875,-0.041992188,-1.0010376,0.1383667,0.109375,0.15625,0.40625
1664720972906,-0.03173828,-0.99176025,0.13201904,-0.203125,1.125,-0.25
1664720972940,-0.03540039,-0.99786377,0.13494873,0.171875,1.4375,-0.34375
1664720973032,-0.040283203,-0.98443604,0.13397217,0.015625,0.90625,-0.171875
1664720973040,-0.03515625,-0.9976196,0.14105225,0.1875,1.09375,-0.015625
1664720973063,-0.040771484,-0.9968872,0.13690186,0.453125,1.15625,-0.25
1664720973154,-0.044677734,-0.9939575,0.13934326,-0.03125,1.390625,-0.265625
1664720973160,-0.044921875,-0.9993286,0.14666748,0.765625,0.9375,-0.1875
1664720973184,-0.043701172,-0.99786377,0.13934326,0.765625,1.390625,-0.015625
1664720973221,-0.036132812,-0.99542236,0.13201904,0.625,1.03125,0.296875
1664720973312,-0.045410156,-0.9951782,0.13104248,0.0625,1.1875,0.3125
1664720973315,-0.037597656,-0.99102783,0.13446045,0.4375,1.03125,0.40625
1664720973344,-0.044433594,-0.987854,0.1281128,0.28125,1.15625,0.078125
1664720973378,-0.04296875,-0.9951782,0.13787842,0.078125,1.4375,0.3125
1664720973467,-0.039794922,-0.9924927,0.13665771,0.15625,1.65625,0.046875
1664720973471,-0.042236328,-0.99346924,0.14056396,-0.453125,1.5,0.140625
1664720973502,-0.047851562,-0.9981079,0.14154053,0.5625,1.046875,0.46875
1664720973540,-0.041503906,-0.989563,0.13348389,-0.390625,1.890625,0.15625
1664720973635,-0.042236328,-0.99298096,0.1317749,0.484375,1.421875,0.203125
1664720973643,-0.040771484,-0.98931885,0.12298584,-1.1875,1.671875,-0.1875
1664720973660,-0.044677734,-0.9973755,0.13934326,-0.015625,0.65625,0.65625
1664720973693,-0.043701172,-0.99420166,0.13812256,-0.4375,1.515625,0.125
1664720973782,-0.044189453,-0.99542236,0.13348389,-0.015625,1.625,0.21875
1664720973786,-0.044677734,-0.98883057,0.14642334,-0.203125,1.453125,0.28125
1664720973816,-0.04345703,-0.99224854,0.13861084,0.140625,1.015625,0.578125
1664720973908,-0.036865234,-0.9920044,0.1395874,0.078125,1.1875,0.0625
1664720973911,-0.044433594,-0.9907837,0.1473999,0.21875,1.109375,0.03125
1664720973941,-0.043701172,-0.99786377,0.13861084,0.28125,0.953125,0.546875
1664720973973,-0.037109375,-0.9937134,0.14520264,0.109375,1.1875,0.234375
1664720974064,-0.04296875,-0.9961548,0.14056396,0.359375,0.859375,0.21875
1664720974071,-0.04248047,-0.9907837,0.13909912,-0.140625,1.125,0.28125
1664720974095,-0.038330078,-1.000061,0.13323975,-0.125,0.921875,0.296875
1664720974132,-0.041503906,-0.9976196,0.14569092,0.03125,1.40625,0.328125
1664720974220,-0.0390625,-0.9902954,0.14129639,0.34375,1.125,0.328125
1664720974223,-0.041259766,-0.9907837,0.13812256,0.078125,1.25,0.078125
1664720974255,-0.04321289,-0.99346924,0.13763428,0.046875,1.21875,0.28125
1664720974292,-0.05078125,-0.98883057,0.14642334,0.21875,1.0625,0.5625
1664720974381,-0.041503906,-0.99176025,0.13812256,-0.40625,1.390625,0.65625
1664720974390,-0.035888672,-0.99420166,0.14154053,-0.21875,1.171875,0.171875
1664720974414,-0.037353516,-0.9963989,0.13665771,-0.03125,1.84375,-0.15625
1664720974447,-0.05053711,-0.9990845,0.14886475,0.640625,0.5,0.71875
1664720974534,-0.044433594,-0.9924927,0.13787842,1.015625,0.890625,0.75
1664720974538,-0.034423828,-0.9890747,0.1317749,-0.046875,1.375,0.015625
1664720974571,-0.032226562,-0.99542236,0.13543701,0.28125,1.15625,-0.125
1664720974657,-0.035888672,-0.9968872,0.13397217,-0.390625,0.9375,-0.296875
1664720974661,-0.041259766,-1.000061,0.13763428,-0.5625,0.953125,-0.265625
1664720974691,-0.04638672,-0.98565674,0.15032959,-1.546875,1.03125,-0.75
1664720974725,-0.04711914,-0.9993286,0.1486206,-2.328125,0.71875,-0.0625
1664720974813,-0.049804688,-0.9780884,0.15838623,-1.828125,0.703125,-0.78125
1664720974819,-0.04736328,-0.99102783,0.16375732,-0.90625,0.34375,0.65625
1664720974849,-0.05126953,-0.99713135,0.15350342,1.453125,0.59375,-0.03125
1664720974882,-0.033691406,-0.99346924,0.14715576,1.109375,1.203125,0.359375
1664720974974,-0.041259766,-0.98760986,0.14300537,1.3125,0.84375,0.15625
1664720974977,-0.043945312,-0.987854,0.14520264,0.40625,1.21875,0.3125
1664720975007,-0.046875,-0.9885864,0.15301514,0.3125,0.8125,0.125
1664720975040,-0.048339844,-0.9849243,0.15570068,0.71875,1.078125,-0.03125
1664720975131,-0.046875,-0.9993286,0.15618896,0.96875,0.65625,0.03125
1664720975135,-0.041015625,-0.9973755,0.1539917,2.578125,0.71875,0.109375
1664720975164,-0.053710938,-0.9859009,0.13983154,1.625,1.65625,0.21875
1664720975200,-0.048339844,-0.9927368,0.13226318,3.21875,0.390625,0.625
1664720975290,-0.045654297,-0.9854126,0.13006592,0.890625,1.171875,0.125
1664720975298,-0.049560547,-1.000061,0.14105225,1.984375,0.296875,0.5625
1664720975327,-0.044677734,-0.9951782,0.13983154,1.71875,1.359375,-0.109375
1664720975412,-0.04638672,-0.99420166,0.13397217,1.421875,1.234375,0.25
1664720975416,-0.04711914,-0.9915161,0.12567139,1.734375,1.4375,0.453125
1664720975442,-0.04711914,-0.9998169,0.12640381,1.6875,0.984375,0.515625
1664720975482,-0.04736328,-0.986145,0.12567139,1.109375,1.390625,0.28125
1664720975569,-0.04321289,-1.0003052,0.13006592,1.03125,1.03125,0.578125
1664720975572,-0.044189453,-0.991272,0.12371826,1.96875,1.171875,0.65625
1664720975604,-0.044189453,-0.9939575,0.120788574,1.34375,1.109375,0.34375
1664720975635,-0.044677734,-0.9932251,0.1251831,1.125,1.25,0.5
1664720975728,-0.049560547,-0.9961548,0.11810303,1.375,1.21875,0.5
1664720975732,-0.04711914,-0.99005127,0.12249756,1.234375,1.359375,0.265625
1664720975760,-0.03881836,-1.0003052,0.12030029,0.875,1.59375,0.421875
1664720975791,-0.04663086,-1.0003052,0.10736084,0.828125,1.5625,0.828125
1664720975846,-0.030517578,-1.0025024,0.109313965,0.015625,0.984375,0.703125
1664720975879,-0.048095703,-1.0007935,0.11273193,-0.234375,0.59375,0.421875
1664720975913,-0.03540039,-1.000061,0.113464355,-1.171875,1.671875,0.03125
1664720975947,-0.04272461,-1.0012817,0.11199951,-0.125,0.8125,-0.046875
1664720976037,-0.039794922,-0.98883057,0.11517334,-1.390625,1.671875,-0.15625
1664720976044,-0.044677734,-0.99884033,0.12005615,-0.9375,0.40625,0.234375
1664720976073,-0.040527344,-0.99420166,0.121032715,-0.765625,1.40625,-0.03125
1664720976166,-0.044921875,-0.991272,0.12860107,-1.21875,1.0625,-0.265625
1664720976170,-0.047607422,-0.9939575,0.121520996,-0.6875,0.953125,-0.015625
1664720976195,-0.040283203,-0.9920044,0.12738037,-0.65625,0.828125,0.15625
1664720976229,-0.045166016,-0.9932251,0.1281128,-0.890625,1.265625,-0.0625
1664720976318,-0.048583984,-0.99298096,0.13421631,-0.828125,0.921875,0.1875
1664720976322,-0.049560547,-0.99420166,0.1359253,-0.484375,1.15625,0.359375
1664720976354,-0.04272461,-0.99468994,0.13494873,-0.3125,1.078125,0.21875
1664720976387,-0.03955078,-0.9968872,0.12982178,-0.65625,1.109375,0.140625
1664720976480,-0.046142578,-0.99420166,0.12908936,-0.203125,1.234375,0.25
1664720976486,-0.046875,-0.9993286,0.13446045,-0.28125,1.15625,0.265625
1664720976512,-0.03930664,-0.9993286,0.13323975,-0.265625,1.34375,0.3125
1664720976547,-0.044433594,-0.9981079,0.13397217,0.09375,1.140625,-0.015625
1664720976638,-0.047851562,-0.9890747,0.13421631,-0.375,1.046875,0.046875
1664720976645,-0.045654297,-0.99591064,0.13275146,-0.265625,0.875,0.1875
1664720976668,-0.043701172,-0.9907837,0.13226318,-1.171875,1.765625,-0.171875
1664720976705,-0.048828125,-0.9961548,0.13812256,0.25,1.078125,0.0
1664720976795,-0.049316406,-0.98760986,0.13543701,-1.640625,1.546875,-0.109375
1664720976799,-0.043701172,-1.0025024,0.1437378,-0.171875,0.46875,0.359375
1664720976826,-0.04248047,-0.987854,0.13983154,0.03125,1.484375,-0.125
1664720976918,-0.045166016,-0.9920044,0.13470459,0.640625,1.59375,0.1875
1664720976922,-0.04736328,-0.99420166,0.13616943,0.65625,0.84375,0.40625
1664720976951,-0.050048828,-1.0039673,0.13739014,0.078125,0.96875,0.21875
1664720976983,-0.04663086,-0.9915161,0.14788818,-0.03125,1.015625,-0.0625
1664720977076,-0.057617188,-0.9927368,0.14764404,0.15625,1.03125,0.125
1664720977080,-0.041503906,-0.9961548,0.13934326,0.265625,1.15625,0.546875
1664720977138,-0.041259766,-0.9963989,0.14202881,0.234375,1.0625,0.25
1664720977165,-0.044433594,-0.989563,0.14202881,-0.265625,1.375,0.265625
1664720977250,-0.038085938,-0.9956665,0.14300537,0.171875,1.125,0.359375
1664720977253,-0.044921875,-0.9956665,0.14178467,0.625,1.078125,0.484375
1664720977267,-0.044189453,-0.98931885,0.13909912,0.734375,1.40625,0.359375
1664720977297,-0.047607422,-0.99713135,0.14031982,0.1875,0.96875,0.3125
1664720977404,-0.041992188,-0.9866333,0.14324951,0.359375,0.9375,0.234375
1664720977408,-0.045410156,-0.99468994,0.14056396,0.234375,1.171875,0.328125
1664720977431,-0.04272461,-0.9915161,0.15081787,0.53125,1.4375,0.34375
1664720977476,-0.045654297,-0.99224854,0.13787842,0.5,1.5625,0.046875
1664720977553,-0.052734375,-0.9985962,0.13665771,0.375,1.21875,0.4375
1664720977555,-0.03564453,-0.99224854,0.12957764,-0.546875,1.96875,-0.28125
1664720977582,-0.059326172,-0.99542236,0.13983154,-0.1875,0.484375,0.15625
1664720977671,-0.0390625,-0.99468994,0.14398193,-0.296875,1.46875,0.3125
1664720977675,-0.048095703,-0.99102783,0.14666748,-0.15625,1.734375,0.109375
1664720977701,-0.039794922,-0.9890747,0.14178467,0.578125,1.4375,0.40625
1664720977745,-0.04736328,-0.99176025,0.14349365,0.15625,1.453125,0.15625
1664720977827,-0.043945312,-0.99346924,0.14056396,-0.28125,1.390625,0.390625
1664720977830,-0.056640625,-0.98687744,0.14666748,-0.375,1.265625,0.015625
1664720977876,-0.049072266,-0.9956665,0.15106201,0.65625,1.109375,0.5
1664720977892,-0.041992188,-0.9932251,0.13812256,0.3125,1.25,0.265625
1664720977983,-0.044433594,-0.9902954,0.14056396,0.578125,1.28125,0.40625
1664720977987,-0.04345703,-0.99053955,0.1437378,0.375,1.6875,0.34375
1664720978015,-0.045410156,-0.991272,0.13641357,0.765625,1.46875,0.28125
1664720978060,-0.052001953,-0.991272,0.13885498,1.328125,1.78125,0.203125
1664720978152,-0.04321289,-0.98809814,0.14202881,0.921875,2.015625,0.578125
1664720978154,-0.047607422,-0.9932251,0.13616943,1.515625,1.8125,0.5
1664720978180,-0.055419922,-0.9885864,0.13885498,1.21875,1.3125,0.71875
1664720978208,-0.04296875,-0.9837036,0.1486206,1.421875,1.578125,0.96875
1664720978297,-0.041503906,-0.99664307,0.1281128,2.75,1.96875,0.40625
1664720978301,-0.04248047,-0.9854126,0.124694824,1.828125,1.53125,0.921875
1664720978332,-0.03540039,-0.9981079,0.120788574,1.34375,1.140625,0.421875
1664720978421,-0.03515625,-0.9871216,0.13079834,2.28125,-0.203125,0.859375
1664720978425,-0.050048828,-0.99957275,0.1227417,4.09375,-0.578125,1.3125
1664720978490,-0.033203125,-0.99468994,0.1071167,2.25,1.09375,0.515625
1664720978512,-0.042236328,-1.0007935,0.113220215,2.234375,1.125,0.765625
1664720978576,-0.038330078,-0.99835205,0.10614014,1.953125,1.421875,0.8125
1664720978579,-0.03564453,-1.0039673,0.10247803,2.25,0.296875,0.828125
1664720978619,-0.03466797,-0.989563,0.10321045,1.5625,1.046875,0.40625
1664720978645,-0.028076172,-0.989563,0.10028076,1.359375,0.109375,0.875
1664720978739,-0.036132812,-0.9973755,0.10687256,1.421875,1.109375,0.71875
1664720978742,-0.040283203,-0.9951782,0.10760498,1.65625,1.6875,0.859375
1664720978766,-0.03466797,-1.0012817,0.097839355,0.359375,0.984375,0.9375
1664720978819,-0.03881836,-0.9985962,0.09881592,0.953125,0.875,0.640625
1664720978910,-0.03466797,-1.003479,0.093444824,1.40625,0.8125,0.625
1664720978914,-0.023925781,-0.9944458,0.09075928,-0.59375,0.96875,0.21875
1664720978925,-0.032226562,-0.9949341,0.09710693,-1.359375,0.8125,0.421875
1664720978966,-0.033203125,-0.99176025,0.101501465,-1.1875,0.859375,0.171875
1664720979050,-0.032470703,-1.0117798,0.09295654,-1.21875,1.109375,0.1875
1664720979053,-0.028320312,-0.987854,0.10736084,-2.796875,1.40625,-0.328125
1664720979092,-0.033935547,-0.99713135,0.112976074,-0.453125,1.265625,-0.21875
1664720979195,-0.033203125,-0.9915161,0.10076904,-2.296875,1.484375,-0.03125
1664720979200,-0.036865234,-1.006897,0.11541748,-0.875,0.625,0.4375
1664720979230,-0.03857422,-0.9885864,0.116882324,-0.828125,1.609375,-0.453125
1664720979246,-0.03881836,-0.99591064,0.10736084,-0.640625,1.234375,0.140625
1664720979332,-0.028564453,-0.9956665,0.11053467,-0.859375,1.859375,-0.078125
1664720979335,-0.036132812,-0.99542236,0.11785889,1.734375,1.125,0.28125
1664720979382,-0.033203125,-0.99835205,0.1149292,3.328125,3.328125,-0.4375
1664720979408,-0.052734375,-1.0046997,0.10858154,5.703125,1.859375,-0.046875
1664720979498,-0.03100586,-0.99664307,0.09832764,2.5,2.015625,0.25
1664720979501,-0.03540039,-0.9949341,0.10443115,0.890625,1.828125,-0.125
1664720979548,-0.034179688,-1.0032349,0.09490967,0.390625,2.078125,0.078125
1664720979562,-0.034423828,-0.9951782,0.10003662,0.109375,1.8125,-0.21875
1664720979654,-0.031982422,-0.99346924,0.10223389,-0.828125,1.5,0.0
1664720979658,-0.037841797,-0.9939575,0.11077881,-1.515625,1.375,-0.1875
1664720979680,-0.03466797,-1.0005493,0.10076904,-1.078125,1.296875,-0.09375
1664720979720,-0.037597656,-0.99346924,0.11102295,-1.03125,1.234375,0.125
1664720979813,-0.032226562,-0.9998169,0.109802246,-0.796875,1.015625,0.28125
1664720979815,-0.035888672,-0.9981079,0.11102295,0.328125,1.15625,0.15625
1664720979839,-0.035888672,-0.9981079,0.10809326,1.15625,1.265625,0.0
1664720979947,-0.038085938,-0.9937134,0.11199951,0.328125,0.6875,0.265625
1664720979949,-0.03466797,-0.99835205,0.10247803,-0.25,2.0,-0.125
1664720979957,-0.045898438,-1.0010376,0.11126709,0.046875,0.703125,0.0625
1664720980003,-0.03466797,-0.9961548,0.117370605,-0.0625,1.1875,0.1875
1664720980085,-0.040283203,-1.000061,0.1071167,-0.125,1.671875,-0.203125
1664720980090,-0.041503906,-0.9885864,0.11224365,-0.046875,1.375,0.078125
1664720980131,-0.04248047,-0.9961548,0.10467529,-0.53125,1.234375,0.171875
1664720980149,-0.040039062,-0.9961548,0.10345459,-0.34375,1.375,0.0625
1664720980246,-0.038330078,-0.9907837,0.11395264,-0.703125,1.265625,0.0
1664720980251,-0.04248047,-1.0059204,0.11419678,-0.015625,1.03125,0.171875
1664720980271,-0.036376953,-0.9976196,0.112976074,0.59375,1.125,0.078125
1664720980304,-0.041748047,-0.9902954,0.11077881,0.328125,1.34375,-0.03125
1664720980403,-0.0390625,-0.99542236,0.11053467,-0.1875,1.265625,0.359375
1664720980405,-0.03540039,-0.9968872,0.1071167,0.171875,1.0625,0.375
1664720980429,-0.03955078,-0.99346924,0.116882324,0.109375,1.046875,0.25
1664720980474,-0.036132812,-0.9944458,0.11273193,0.078125,1.15625,0.5625
1664720980562,-0.036132812,-0.99542236,0.113708496,0.625,1.125,0.5
1664720980565,-0.037841797,-1.00177,0.11541748,0.875,1.125,0.46875
1664720980590,-0.042236328,-1.0005493,0.109313965,0.484375,1.609375,0.75
1664720980696,-0.041748047,-0.99835205,0.113220215,0.0625,1.59375,0.453125
1664720980701,-0.040771484,-0.99786377,0.11663818,-0.59375,1.421875,0.25
1664720980716,-0.03515625,-0.9907837,0.11224365,-2.28125,1.875,0.1875
1664720980743,-0.032470703,-1.0025024,0.11395264,-0.1875,1.671875,0.3125
1664720980835,-0.036376953,-0.99298096,0.11224365,-1.015625,1.796875,0.03125
1664720980837,-0.038085938,-1.0037231,0.12005615,0.125,0.71875,0.921875
1664720980875,-0.03466797,-0.9924927,0.12054443,0.390625,1.765625,0.359375
1664720980913,-0.03515625,-0.9902954,0.11907959,0.859375,1.859375,0.109375
1664720981007,-0.03515625,-0.9937134,0.11566162,0.0625,1.3125,0.609375
1664720981012,-0.028320312,-0.99176025,0.1149292,0.453125,0.875,0.25
1664720981024,-0.030029297,-1.0044556,0.10760498,0.671875,1.0625,0.65625
1664720981063,-0.03540039,-0.9963989,0.12225342,0.921875,1.1875,0.15625
1664720981151,-0.037353516,-0.99591064,0.10443115,0.75,0.859375,0.640625
1664720981154,-0.029785156,-0.9956665,0.11859131,0.859375,1.078125,0.40625
1664720981185,-0.033691406,-0.99053955,0.113220215,0.640625,1.125,0.5625
1664720981226,-0.025390625,-0.9973755,0.117126465,0.5625,1.15625,0.203125
1664720981310,-0.032226562,-0.9985962,0.10272217,0.25,0.75,0.34375
1664720981313,-0.03466797,-0.9961548,0.11053467,-0.078125,0.859375,0.125
1664720981338,-0.033691406,-0.9924927,0.10858154,-0.265625,0.8125,0.03125
1664720981430,-0.037353516,-0.9956665,0.11224365,-0.4375,0.875,0.140625
1664720981434,-0.032226562,-0.9951782,0.109069824,-0.265625,1.046875,-0.03125
1664720981464,-0.040527344,-0.9907837,0.11590576,-0.359375,0.8125,0.0
1664720981511,-0.037597656,-1.0029907,0.109069824,-0.296875,1.15625,0.109375
1664720981589,-0.036132812,-0.99420166,0.117614746,-1.0,1.25,-0.25
1664720981592,-0.041015625,-1.006897,0.11395264,-0.5625,1.265625,-0.125
1664720981635,-0.03564453,-0.9920044,0.11590576,-1.4375,0.78125,-0.09375
1664720981654,-0.040283203,-0.99835205,0.1227417,0.34375,0.78125,0.109375
1664720981749,-0.033203125,-0.991272,0.11956787,-1.140625,1.265625,-0.390625
1664720981752,-0.048339844,-0.9939575,0.11663818,-0.75,0.890625,0.1875
1664720981778,-0.03515625,-0.9932251,0.11859131,-0.75,1.4375,0.015625
1664720981833,-0.045410156,-1.0022583,0.1227417,-0.046875,0.78125,0.3125
1664720981914,-0.036865234,-0.99005127,0.11907959,-1.390625,1.390625,-0.421875
1664720981917,-0.045898438,-0.9963989,0.13031006,-0.375,1.265625,0.0
1664720981950,-0.041503906,-0.9993286,0.1251831,-0.5,1.46875,0.21875
1664720981972,-0.03857422,-0.9998169,0.13104248,-0.3125,0.953125,0.234375
1664720982064,-0.041503906,-0.9866333,0.12908936,-0.921875,1.171875,0.0625
1664720982077,-0.043945312,-0.991272,0.13153076,-0.640625,1.1875,0.34375
1664720982116,-0.03540039,-0.99005127,0.12957764,0.078125,1.484375,0.03125
1664720982182,-0.04711914,-0.989563,0.12786865,-0.09375,1.125,0.125
1664720982188,-0.04345703,-0.98931885,0.13470459,-0.53125,1.484375,0.4375
1664720982238,-0.041259766,-0.9920044,0.13201904,-0.296875,1.171875,0.140625
1664720982259,-0.037597656,-0.9932251,0.1239624,-0.8125,1.359375,-0.046875
1664720982338,-0.038085938,-0.99957275,0.14276123,-0.03125,0.859375,0.078125
1664720982342,-0.041015625,-0.991272,0.13031006,-0.875,1.6875,-0.03125
1664720982379,-0.034423828,-0.99713135,0.13543701,0.265625,1.125,0.015625
1664720982407,-0.045410156,-0.98760986,0.13885498,-1.1875,1.59375,-0.40625
1664720982498,-0.046875,-1.0039673,0.137146,-0.0625,0.515625,0.28125
1664720982502,-0.042236328,-0.987854,0.13934326,-0.390625,1.4375,-0.0625
1664720982532,-0.044433594,-0.9907837,0.14007568,0.046875,1.21875,0.015625
1664720982584,-0.044921875,-0.986145,0.1317749,0.0,1.21875,0.296875
1664720982677,-0.04296875,-0.9924927,0.13885498,-0.0625,0.890625,0.359375
1664720982679,-0.042236328,-0.9924927,0.13934326,-0.609375,1.421875,0.03125
1664720982687,-0.046142578,-0.9985962,0.15081787,-0.390625,1.453125,0.15625
1664720982729,-0.043945312,-0.99542236,0.14276123,0.234375,1.265625,0.15625
1664720982812,-0.04711914,-0.9944458,0.1437378,0.140625,1.421875,0.234375
1664720982816,-0.043701172,-0.9927368,0.14691162,-0.28125,1.515625,0.265625
1664720982885,-0.044433594,-0.99713135,0.14031982,0.015625,1.609375,0.03125
1664720982934,-0.04345703,-0.99664307,0.14691162,0.40625,1.296875,0.375
1664720982937,-0.040771484,-0.99664307,0.14324951,0.453125,1.78125,0.171875
1664720982970,-0.043945312,-0.9924927,0.14349365,0.9375,1.21875,0.5625
1664720983003,-0.051757812,-0.99786377,0.14471436,0.765625,0.734375,0.828125
1664720983100,-0.050048828,-0.98760986,0.13812256,0.359375,1.328125,0.984375
1664720983103,-0.039794922,-0.99224854,0.13934326,0.625,1.078125,1.0625
1664720983126,-0.032226562,-0.98687744,0.14544678,1.671875,1.0625,0.109375
1664720983162,-0.033935547,-0.99957275,0.13470459,1.3125,1.25,-0.234375
1664720983251,-0.03100586,-0.986145,0.1395874,0.109375,1.265625,0.015625
1664720983255,-0.04248047,-0.9944458,0.1383667,0.734375,1.328125,-0.03125
1664720983289,-0.044189453,-0.9859009,0.13909912,1.453125,0.4375,0.375
1664720983385,-0.04296875,-1.0044556,0.1293335,2.546875,0.203125,0.4375
1664720983391,-0.041015625,-0.9956665,0.1317749,1.78125,1.0625,0.03125
1664720983428,-0.048095703,-0.99176025,0.11956787,1.859375,0.71875,0.109375
1664720983440,-0.047607422,-0.9993286,0.1161499,1.671875,0.65625,0.546875
1664720983508,-0.04321289,-1.0003052,0.11956787,1.234375,0.46875,0.515625
1664720983562,-0.040771484,-0.99102783,0.12860107,0.796875,0.78125,0.171875
1664720983564,-0.040527344,-0.9927368,0.12908936,1.53125,0.796875,0.40625
1664720983614,-0.04272461,-0.99713135,0.11517334,2.453125,0.921875,0.15625
1664720983686,-0.040283203,-0.9920044,0.12347412,2.28125,0.78125,0.40625
1664720983690,-0.040039062,-0.9990845,0.11541748,1.609375,0.796875,0.515625
1664720983719,-0.040283203,-1.0003052,0.10736084,1.34375,0.625,0.59375
1664720983756,-0.035888672,-0.9973755,0.10760498,0.6875,0.53125,0.609375
1664720983843,-0.03540039,-0.9949341,0.109313965,0.3125,0.796875,0.453125
1664720983845,-0.029541016,-1.000061,0.10882568,-0.5625,1.015625,0.3125
1664720983878,-0.037841797,-0.9951782,0.113220215,-0.875,1.109375,-0.078125
1664720983913,-0.04736328,-1.0037231,0.10784912,-0.671875,1.171875,0.234375
1664720984002,-0.035888672,-0.9956665,0.11273193,-1.71875,1.53125,-0.140625
1664720984004,-0.041015625,-1.0005493,0.11444092,-0.59375,1.109375,-0.234375
1664720984040,-0.03466797,-0.989563,0.116882324,-2.1875,0.984375,0.03125
1664720984124,-0.03955078,-1.0042114,0.12591553,-0.609375,0.640625,0.390625
1664720984127,-0.044677734,-0.9939575,0.11566162,-1.125,1.5625,-0.46875
1664720984157,-0.040771484,-0.989563,0.12567139,-1.1875,1.15625,-0.046875
1664720984198,-0.038330078,-0.99957275,0.12200928,-1.359375,1.53125,-0.09375
1664720984227,-0.04272461,-0.99786377,0.124694824,-0.546875,0.875,0.03125
1664720984318,-0.041992188,-0.99176025,0.13079834,-1.484375,1.546875,-0.234375
1664720984321,-0.041748047,-0.9990845,0.1317749,-1.203125,1.078125,-0.046875
1664720984356,-0.037597656,-0.9951782,0.13690186,-0.15625,1.25,-0.015625
1664720984464,-0.041748047,-0.99420166,0.12908936,-0.1875,1.453125,-0.046875
1664720984467,-0.040283203,-0.9973755,0.13397217,-0.28125,1.015625,0.140625
1664720984475,-0.046875,-0.989563,0.13421631,-0.21875,1.25,0.109375
1664720984525,-0.049804688,-0.99835205,0.13128662,-0.53125,1.28125,0.15625
1664720984600,-0.04272461,-0.99468994,0.13470459,-0.359375,1.265625,0.25
1664720984604,-0.038330078,-0.9883423,0.13690186,-0.640625,1.484375,-0.109375
1664720984642,-0.045410156,-0.9949341,0.14276123,-0.3125,1.3125,0.046875
1664720984666,-0.046142578,-0.99176025,0.1317749,-0.390625,1.53125,0.0625
1664720984765,-0.047851562,-0.9932251,0.14178467,-0.328125,1.21875,0.234375
1664720984768,-0.03955078,-0.9939575,0.14129639,-0.28125,1.390625,0.078125
1664720984796,-0.03955078,-0.98760986,0.15179443,-0.078125,1.3125,0.21875
1664720984877,-0.03955078,-0.9944458,0.13616943,-0.28125,1.875,-0.296875
1664720984884,-0.047851562,-0.9963989,0.14666748,0.0625,0.5,0.15625
1664720984912,-0.04736328,-0.9949341,0.1473999,0.75,1.15625,0.4375
1664720984966,-0.04663086,-0.99298096,0.13690186,-0.015625,1.359375,-0.171875
1664720984993,-0.044677734,-0.9824829,0.14227295,0.171875,1.140625,0.109375
1664720985078,-0.045410156,-0.9902954,0.13690186,-0.40625,1.40625,0.328125
1664720985084,-0.04711914,-0.9944458,0.13885498,-0.09375,1.296875,0.390625
1664720985103,-0.04711914,-0.9920044,0.1437378,-0.84375,1.171875,0.0625
1664720985194,-0.045166016,-0.99176025,0.14910889,-0.140625,1.03125,0.03125
1664720985198,-0.044921875,-0.99298096,0.14691162,0.21875,1.171875,0.15625
1664720985232,-0.046875,-0.991272,0.14935303,-0.015625,0.9375,0.59375
1664720985275,-0.04663086,-0.9871216,0.1461792,0.21875,1.453125,0.453125
1664720985350,-0.04321289,-0.9871216,0.14715576,0.453125,1.296875,0.46875
1664720985353,-0.04711914,-0.9944458,0.14349365,0.28125,1.125,0.515625
1664720985396,-0.048583984,-1.0007935,0.13934326,0.265625,1.015625,0.5625
1664720985420,-0.044433594,-0.99468994,0.14422607,0.109375,1.09375,0.359375
1664720985508,-0.040771484,-0.9932251,0.14447021,0.3125,1.15625,0.578125
1664720985511,-0.04296875,-0.9993286,0.1449585,0.171875,1.265625,0.296875
1664720985549,-0.041015625,-0.9944458,0.14715576,0.28125,1.25,0.609375
1664720985610,-0.048828125,-0.9961548,0.14813232,0.265625,1.265625,0.46875
1664720985664,-0.044189453,-0.9907837,0.15423584,0.75,1.5625,0.59375
1664720985667,-0.041259766,-1.0007935,0.13763428,1.015625,2.203125,0.421875
1664720985697,-0.04296875,-0.9927368,0.14398193,1.03125,0.5,0.6875
1664720985733,-0.043701172,-0.9968872,0.1515503,1.796875,1.3125,1.046875
1664720985839,-0.04296875,-0.99053955,0.14984131,1.984375,1.390625,0.421875
1664720985842,-0.038085938,-0.9902954,0.13470459,2.328125,1.609375,0.5625
1664720985860,-0.049316406,-0.99053955,0.12322998,1.46875,1.234375,0.671875
1664720985954,-0.03466797,-1.0027466,0.13104248,2.046875,0.953125,0.90625
1664720985957,-0.048095703,-0.99224854,0.13275146,1.625,0.828125,0.34375
1664720985983,-0.037597656,-0.9939575,0.13519287,2.265625,0.765625,0.609375
1664720986014,-0.03564453,-0.9949341,0.11859131,2.390625,0.546875,0.734375
1664720986123,-0.03881836,-0.9898071,0.12054443,1.84375,0.296875,0.890625
1664720986132,-0.034179688,-0.99591064,0.12982178,2.546875,0.015625,0.875
1664720986144,-0.041992188,-1.00177,0.11883545,3.359375,0.40625,0.671875
1664720986175,-0.021240234,-1.0039673,0.10760498,2.734375,0.5625,0.484375
1664720986255,-0.041748047,-0.99005127,0.097351074,1.96875,0.71875,0.234375
1664720986258,-0.03564453,-0.99957275,0.101745605,1.078125,0.875,0.8125
1664720986290,-0.038085938,-0.9973755,0.09710693,1.0625,0.9375,0.265625
1664720986329,-0.033691406,-0.99420166,0.09906006,-0.4375,1.328125,0.109375
1664720986415,-0.042236328,-1.0054321,0.109313965,-0.46875,0.875,-0.03125
1664720986418,-0.025634766,-0.9924927,0.109313965,-0.484375,1.6875,-0.265625
1664720986450,-0.04345703,-1.0037231,0.10247803,-0.375,1.21875,-0.09375
1664720986488,-0.03564453,-0.989563,0.10443115,-1.421875,1.453125,-0.09375
1664720986578,-0.036132812,-0.9949341,0.1161499,-0.75,0.703125,0.21875
1664720986581,-0.040527344,-0.9920044,0.11199951,-0.953125,1.421875,-0.375
1664720986609,-0.036621094,-0.9963989,0.112976074,-1.59375,1.265625,-0.328125
1664720986698,-0.046142578,-0.99713135,0.11663818,-0.859375,0.953125,-0.125
1664720986699,-0.041503906,-0.98883057,0.12298584,-1.234375,0.921875,0.0625
1664720986742,-0.03930664,-1.0010376,0.121520996,-0.78125,1.15625,-0.09375
1664720986771,-0.05029297,-0.9920044,0.12542725,-1.15625,1.171875,-0.046875
1664720986864,-0.034179688,-0.9949341,0.1227417,-0.390625,1.1875,0.34375
1664720986866,-0.038085938,-0.9937134,0.12322998,-0.15625,1.140625,0.15625
1664720986885,-0.03930664,-0.98687744,0.11883545,-0.296875,1.171875,-0.125
1664720986931,-0.03881836,-0.9961548,0.12322998,-1.0625,1.21875,-0.015625
1664720987020,-0.041259766,-0.9939575,0.124938965,-1.140625,1.21875,0.28125
1664720987024,-0.041992188,-0.9990845,0.12908936,-0.8125,1.1875,-0.125
1664720987061,-0.047851562,-0.99005127,0.13421631,-1.0,1.375,-0.03125
1664720987091,-0.044921875,-1.0003052,0.13104248,-1.046875,1.625,-0.0625
1664720987175,-0.043701172,-0.99713135,0.13397217,-1.125,1.46875,-0.015625
1664720987178,-0.03930664,-0.98883057,0.14154053,-0.515625,1.015625,0.265625
1664720987203,-0.040039062,-0.9898071,0.13397217,-1.546875,1.984375,-0.078125
1664720987237,-0.03881836,-0.9939575,0.13983154,-0.1875,1.328125,0.21875
1664720987348,-0.045898438,-0.987854,0.1359253,-1.5,2.234375,-0.578125
1664720987350,-0.05419922,-0.9951782,0.1437378,-0.515625,0.40625,0.375
1664720987363,-0.041992188,-0.9956665,0.14691162,-0.734375,1.53125,0.328125
1664720987467,-0.04296875,-0.9937134,0.14398193,-0.015625,1.625,-0.28125
1664720987469,-0.040283203,-0.99420166,0.1395874,-0.078125,1.5,0.265625
1664720987482,-0.041259766,-0.99053955,0.14154053,-0.234375,1.0,0.09375
1664720987517,-0.036865234,-0.9976196,0.14324951,-0.21875,1.25,0.140625
1664720987606,-0.043701172,-0.99053955,0.15472412,-0.421875,1.34375,-0.203125
1664720987614,-0.052001953,-0.9956665,0.13861084,0.1875,0.921875,0.125
1664720987638,-0.03540039,-0.99102783,0.14276123,0.25,1.15625,-0.125
1664720987674,-0.049072266,-0.99176025,0.14349365,0.484375,1.234375,-0.359375
1664720987781,-0.047607422,-0.9968872,0.14349365,0.171875,0.921875,-0.1875
1664720987785,-0.045654297,-1.005188,0.13763428,-0.9375,1.9375,-0.890625
1664720987796,-0.055419922,-0.98809814,0.14471436,-2.03125,1.875,-1.078125
1664720987835,-0.060058594,-0.9795532,0.16204834,-2.0,1.859375,-0.453125
1664720987928,-0.052490234,-0.99005127,0.16253662,-0.953125,1.640625,-0.203125
1664720987930,-0.05419922,-0.9924927,0.16278076,-0.3125,1.421875,0.03125
1664720987963,-0.043701172,-0.986145,0.16278076,-0.453125,1.5,-0.15625
1664720988019,-0.055419922,-0.99468994,0.16229248,0.84375,1.0,0.0625
1664720988081,-0.048828125,-0.991272,0.15887451,1.25,1.015625,0.78125
1664720988086,-0.043945312,-0.98931885,0.15570068,-0.125,2.015625,0.265625
1664720988125,-0.052001953,-0.9915161,0.152771,1.21875,0.90625,0.59375
1664720988209,-0.053955078,-0.9883423,0.15081787,-0.5,2.0,0.03125
1664720988212,-0.04638672,-0.9956665,0.15008545,0.265625,0.953125,0.671875
1664720988237,-0.053222656,-0.9907837,0.15814209,0.421875,1.515625,0.359375
1664720988270,-0.05102539,-0.99591064,0.14984131,0.6875,1.515625,0.53125
1664720988375,-0.05053711,-0.98883057,0.15057373,1.0625,1.609375,0.421875
1664720988378,-0.045654297,-0.9937134,0.15618896,0.765625,1.25,0.546875
1664720988395,-0.050048828,-0.99176025,0.15130615,1.09375,1.15625,0.65625
1664720988435,-0.044921875,-0.9890747,0.15692139,0.859375,1.59375,0.421875
1664720988542,-0.053955078,-0.987854,0.14324951,1.8125,1.140625,0.4375
1664720988544,-0.041503906,-0.99053955,0.14691162,2.140625,1.0625,0.90625
1664720988570,-0.052246094,-0.9927368,0.14276123,1.625,1.09375,0.90625
1664720988584,-0.048339844,-0.9920044,0.14227295,1.875,1.359375,0.390625
1664720988673,-0.049072266,-0.98931885,0.13201904,1.625,1.1875,0.546875
1664720988678,-0.044189453,-0.98883057,0.13934326,1.28125,0.96875,0.46875
1664720988712,-0.049560547,-0.9968872,0.13812256,1.90625,0.671875,0.828125
1664720988746,-0.044433594,-0.99664307,0.1359253,2.140625,1.28125,0.65625
1664720988844,-0.049804688,-0.9890747,0.12738037,1.28125,0.71875,0.703125
1664720988847,-0.038085938,-0.9951782,0.13421631,2.046875,0.96875,0.90625
1664720988877,-0.044677734,-0.99346924,0.11932373,1.703125,1.09375,0.375
1664720988961,-0.04345703,-0.98516846,0.12664795,2.703125,0.125,0.28125
1664720988964,-0.047607422,-0.99957275,0.11395264,3.71875,-0.6875,1.140625
1664720988996,-0.03466797,-1.0046997,0.105651855,1.203125,0.171875,1.03125
1664720989023,-0.038085938,-0.9968872,0.11077881,1.859375,0.4375,-0.125
1664720989114,-0.036621094,-0.9883423,0.11273193,2.0,0.4375,0.109375
1664720989117,-0.03955078,-0.9932251,0.105163574,0.5625,0.359375,0.359375
1664720989145,-0.040527344,-0.9973755,0.10736084,0.3125,0.4375,0.375
1664720989185,-0.03857422,-0.9968872,0.109802246,-0.890625,1.125,0.0625
1664720989291,-0.046142578,-1.0015259,0.11273193,-1.921875,1.15625,-0.453125
1664720989293,-0.04248047,-1.0005493,0.11590576,-1.125,0.640625,0.046875
1664720989305,-0.043945312,-0.9927368,0.12054443,-1.421875,1.125,-0.59375
1664720989343,-0.046875,-0.99884033,0.11785889,-1.703125,0.765625,-0.390625
1664720989426,-0.04736328,-0.99786377,0.124938965,-1.890625,0.953125,-0.234375
1664720989429,-0.055908203,-1.000061,0.13031006,-1.65625,0.515625,0.078125
1664720989469,-0.044433594,-0.9944458,0.13104248,-1.515625,1.015625,0.03125
1664720989493,-0.04321289,-1.0005493,0.12713623,-1.546875,1.015625,-0.03125
1664720989592,-0.052490234,-1.0054321,0.12908936,-2.5,0.484375,0.375
1664720989601,-0.053955078,-0.99468994,0.13861084,-2.796875,1.578125,0.09375
1664720989629,-0.045898438,-0.986145,0.14837646,-2.796875,2.125,-0.171875
1664720989708,-0.053955078,-0.99420166,0.14764404,-1.65625,1.640625,-0.515625
1664720989715,-0.040039062,-0.9949341,0.1486206,-2.828125,2.71875,-0.546875
1664720989737,-0.05102539,-0.99053955,0.1618042,-1.6875,1.28125,-0.171875
1664720989775,-0.04736328,-0.9939575,0.16033936,-0.84375,2.015625,0.0
1664720989867,-0.04711914,-0.98931885,0.16009521,-1.171875,2.296875,-0.3125
1664720989869,-0.056396484,-0.987854,0.15423584,-1.109375,1.859375,-0.46875
1664720989901,-0.04736328,-0.9932251,0.16156006,-1.34375,1.71875,-0.46875
1664720989932,-0.048828125,-0.99298096,0.1564331,-1.515625,1.453125,-0.140625
1664720990039,-0.053710938,-0.9890747,0.16986084,-1.78125,1.609375,-0.484375
1664720990042,-0.053222656,-0.9951782,0.16448975,-0.65625,1.453125,0.0
1664720990058,-0.052734375,-0.98638916,0.17181396,-0.53125,1.296875,-0.140625
1664720990097,-0.056396484,-0.9898071,0.16741943,-0.65625,1.78125,0.15625
1664720990182,-0.050048828,-0.98809814,0.1749878,-0.140625,1.53125,0.078125
1664720990186,-0.05102539,-0.9859009,0.16790771,-0.015625,1.515625,0.140625
1664720990231,-0.049804688,-0.9915161,0.17254639,0.09375,1.71875,0.03125
1664720990275,-0.052001953,-0.9939575,0.16595459,-0.109375,1.109375,0.140625
1664720990361,-0.053955078,-0.9898071,0.16766357,-0.171875,1.53125,0.125
1664720990363,-0.056884766,-0.9873657,0.17156982,0.0,1.265625,0.203125
1664720990377,-0.057373047,-0.9902954,0.17938232,-0.390625,1.484375,0.15625
1664720990459,-0.060791016,-1.0003052,0.16912842,0.625,1.484375,0.25
1664720990464,-0.056884766,-0.98394775,0.17547607,-0.453125,1.703125,-0.03125
1664720990513,-0.056396484,-0.9924927,0.16790771,0.953125,1.609375,0.21875
1664720990533,-0.053955078,-0.9834595,0.16497803,-0.40625,1.5,-0.078125
1664720990635,-0.059326172,-0.99420166,0.17327881,0.625,0.671875,0.671875
1664720990642,-0.049072266,-0.9866333,0.18133545,-0.015625,1.890625,-0.109375
1664720990676,-0.046875,-0.98809814,0.16986084,0.578125,1.703125,-0.1875
1664720990684,-0.057128906,-0.9859009,0.1696167,-0.015625,1.15625,-0.046875
1664720990772,-0.052246094,-0.99957275,0.17523193,0.3125,0.734375,0.484375
1664720990797,-0.059814453,-0.98809814,0.16766357,0.75,1.640625,0.109375
1664720990822,-0.05810547,-0.9902954,0.17034912,0.671875,1.328125,0.25
1664720990843,-0.05078125,-0.9898071,0.16473389,0.5625,1.140625,0.203125
1664720990951,-0.06274414,-0.989563,0.16326904,0.0625,1.40625,0.15625
1664720990952,-0.052001953,-0.989563,0.16619873,0.09375,1.265625,0.421875
1664720990964,-0.057128906,-0.98321533,0.17352295,-0.328125,1.109375,0.203125
1664720991005,-0.046875,-0.9883423,0.17376709,-0.25,1.421875,0.4375
1664720991089,-0.053710938,-0.98101807,0.17230225,0.15625,1.578125,-0.015625
1664720991092,-0.060058594,-0.98809814,0.17303467,-0.171875,1.234375,0.109375
1664720991133,-0.05126953,-0.9927368,0.17547607,0.078125,1.546875,0.375
1664720991211,-0.057617188,-0.9949341,0.17547607,0.109375,0.9375,0.390625
1664720991215,-0.05444336,-0.9949341,0.17132568,0.84375,1.140625,0.453125
1664720991243,-0.05883789,-0.99298096,0.16131592,0.671875,2.046875,0.03125
1664720991280,-0.05053711,-0.9902954,0.16937256,1.4375,1.328125,0.21875
1664720991377,-0.049804688,-0.9837036,0.16546631,-0.421875,1.96875,-0.234375
1664720991379,-0.06518555,-0.9907837,0.17547607,0.234375,0.453125,0.453125
1664720991403,-0.050048828,-0.9873657,0.17156982,0.265625,1.359375,0.5625
1664720991439,-0.057617188,-0.98516846,0.17156982,0.046875,1.390625,0.375
1664720991527,-0.05053711,-0.98443604,0.1762085,-0.09375,1.609375,0.515625
1664720991532,-0.05834961,-0.987854,0.16790771,-0.03125,1.46875,0.484375
1664720991563,-0.0546875,-0.9898071,0.1696167,0.828125,1.34375,0.765625
1664720991596,-0.05078125,-0.98150635,0.17449951,0.390625,1.515625,0.421875
1664720991681,-0.055419922,-0.9939575,0.16912842,1.921875,1.359375,0.765625
1664720991702,-0.056884766,-0.9902954,0.16082764,2.109375,1.5,0.96875
1664720991719,-0.05419922,-0.9849243,0.16448975,2.03125,1.28125,0.671875
1664720991751,-0.047607422,-0.987854,0.1564331,1.5625,0.984375,0.625
1664720991853,-0.049560547,-0.9907837,0.15911865,2.515625,0.6875,0.59375
1664720991856,-0.053222656,-0.98687744,0.1515503,3.015625,1.890625,0.796875
1664720991910,-0.045898438,-0.99102783,0.14422607,3.578125,1.09375,1.0
1664720991964,-0.048583984,-0.991272,0.14520264,3.65625,0.671875,0.953125
1664720991967,-0.04638672,-0.9920044,0.13885498,2.9375,0.734375,0.890625
1664720992009,-0.041748047,-1.0010376,0.13446045,3.953125,0.140625,0.828125
1664720992033,-0.045654297,-0.99053955,0.12908936,2.65625,-0.171875,0.578125
1664720992127,-0.047607422,-0.99884033,0.12371826,2.328125,-0.71875,1.0
1664720992131,-0.051513672,-0.9927368,0.124938965,3.171875,0.03125,0.84375
1664720992171,-0.034179688,-1.003479,0.12420654,3.359375,-0.171875,0.9375
1664720992193,-0.044677734,-1.00177,0.116882324,3.1875,2.28125,-0.015625
1664720992314,-0.047607422,-0.99005127,0.109069824,3.9375,2.375,-0.015625
1664720992316,-0.046875,-0.989563,0.10687256,3.5625,2.234375,0.40625
1664720992327,-0.041259766,-0.99346924,0.10491943,2.859375,2.0625,0.28125
1664720992351,-0.03857422,-0.99786377,0.097351074,2.28125,1.921875,0.09375
1664720992443,-0.04248047,-0.99664307,0.10247803,1.59375,1.296875,-0.171875
1664720992447,-0.04321289,-1.0022583,0.093688965,1.9375,1.03125,0.625
1664720992483,-0.037597656,-0.99468994,0.097839355,1.34375,1.125,0.140625
1664720992504,-0.048828125,-0.9924927,0.08465576,0.203125,0.78125,0.25
1664720992598,-0.04296875,-0.9998169,0.086120605,-1.15625,1.078125,-0.015625
1664720992611,-0.045898438,-0.9981079,0.09320068,-1.75,1.046875,-0.15625
1664720992631,-0.04296875,-0.9981079,0.101257324,-1.671875,0.796875,-0.015625
1664720992715,-0.04296875,-1.00177,0.09637451,-1.96875,0.921875,-0.125
1664720992717,-0.04321289,-0.9949341,0.10662842,-1.953125,1.0625,0.0
1664720992773,-0.044433594,-1.0007935,0.10736084,-2.21875,1.46875,-0.265625
1664720992792,-0.043701172,-0.9956665,0.1083374,-2.28125,1.46875,-0.28125
1664720992877,-0.039794922,-0.9937134,0.11395264,-1.65625,2.0625,-0.390625
1664720992881,-0.05053711,-0.99786377,0.11126709,-1.84375,0.828125,0.0625
1664720992907,-0.04248047,-0.99713135,0.116882324,-1.390625,0.546875,0.40625
1664720992969,-0.047851562,-0.99176025,0.11907959,-2.953125,1.1875,-0.234375
1664720993031,-0.044433594,-0.99542236,0.12567139,-2.640625,1.03125,0.109375
1664720993032,-0.040039062,-0.99713135,0.13153076,-2.546875,1.0625,-0.3125
1664720993065,-0.048828125,-1.0037231,0.13201904,-1.796875,1.03125,0.171875
1664720993102,-0.04345703,-0.9927368,0.13226318,-2.703125,2.140625,-0.515625
1664720993191,-0.053466797,-0.9859009,0.1395874,-1.765625,1.015625,0.109375
1664720993194,-0.048095703,-0.99176025,0.14764404,-1.609375,1.46875,0.109375
1664720993231,-0.049560547,-0.9963989,0.14715576,-1.765625,1.171875,0.109375
1664720993263,-0.045654297,-0.98883057,0.15228271,-2.484375,2.03125,-0.25
1664720993347,-0.053710938,-0.9944458,0.1473999,-2.59375,1.015625,0.0
1664720993351,-0.052246094,-0.9871216,0.15911865,-3.390625,1.0625,-0.0625
1664720993392,-0.052734375,-0.9898071,0.16497803,-2.6875,0.96875,0.046875
1664720993472,-0.05493164,-0.989563,0.168396,-1.828125,1.234375,-0.03125
1664720993476,-0.055664062,-0.99053955,0.168396,0.265625,1.40625,0.328125
1664720993508,-0.057373047,-0.9834595,0.16375732,-0.578125,1.484375,0.046875
1664720993538,-0.052978516,-0.991272,0.17327881,0.140625,1.46875,0.03125
1664720993640,-0.049316406,-0.9837036,0.16522217,-1.84375,2.515625,-0.609375
1664720993643,-0.061767578,-0.99420166,0.17694092,0.34375,0.765625,0.671875
1664720993679,-0.05493164,-0.98565674,0.17523193,-0.453125,1.40625,0.203125
1664720993695,-0.055908203,-0.989563,0.16912842,0.328125,1.828125,0.03125
1664720993787,-0.052001953,-0.9898071,0.17181396,-0.4375,1.40625,0.046875
1664720993790,-0.05517578,-0.99224854,0.16595459,-0.046875,1.15625,0.125
1664720993817,-0.05834961,-0.9898071,0.17010498,-0.609375,1.078125,0.09375
1664720993852,-0.059326172,-0.989563,0.17938232,-0.453125,1.390625,0.140625
1664720993941,-0.050048828,-0.99298096,0.17376709,-0.234375,1.015625,0.296875
1664720993944,-0.053955078,-0.9924927,0.17669678,0.296875,1.34375,0.140625
1664720993987,-0.055419922,-0.989563,0.17816162,0.484375,1.203125,0.109375
1664720994018,-0.05078125,-0.9885864,0.17474365,0.0625,1.375,0.203125
1664720994106,-0.0546875,-0.9834595,0.17474365,0.34375,1.25,0.1875
1664720994109,-0.0546875,-0.98638916,0.17401123,0.140625,1.375,0.125
1664720994133,-0.052246094,-0.991272,0.17279053,0.140625,1.0625,0.203125
1664720994244,-0.055908203,-0.98321533,0.17376709,0.046875,1.234375,0.125
1664720994246,-0.051757812,-0.99005127,0.17694092,0.0625,0.859375,0.171875
1664720994254,-0.049560547,-0.989563,0.17279053,0.0,1.25,0.140625
1664720994291,-0.053955078,-0.9890747,0.18060303,0.53125,0.90625,0.203125
1664720994389,-0.050048828,-0.9898071,0.17279053,-0.21875,1.578125,-0.015625
1664720994394,-0.0637207,-0.99005127,0.17279053,0.875,1.078125,0.296875
1664720994461,-0.057373047,-0.9866333,0.17156982,-0.328125,1.625,-0.1875
1664720994466,-0.060058594,-0.99005127,0.18084717,0.515625,0.46875,0.6875
1664720994535,-0.052734375,-0.9849243,0.17889404,1.078125,1.375,0.3125
1664720994537,-0.05029297,-0.98760986,0.17108154,1.375,1.640625,0.265625
1664720994587,-0.053710938,-0.9834595,0.16912842,1.484375,1.4375,0.515625
1664720994618,-0.049072266,-0.9920044,0.16937256,1.875,0.90625,0.71875
1664720994710,-0.053710938,-0.99468994,0.16864014,1.15625,1.21875,0.75
1664720994715,-0.048828125,-0.9837036,0.17547607,1.171875,1.625,0.546875
1664720994736,-0.053710938,-0.9924927,0.16668701,2.328125,1.328125,0.796875
1664720994772,-0.057617188,-0.98516846,0.16741943,2.875,1.4375,0.609375
1664720994851,-0.0546875,-0.99346924,0.15594482,2.609375,1.484375,0.75
1664720994854,-0.05493164,-0.9932251,0.1539917,2.953125,1.3125,1.125
1664720994889,-0.047607422,-0.99176025,0.14593506,2.84375,1.265625,0.78125
1664720994984,-0.05078125,-0.99591064,0.14569092,3.0,1.015625,0.625
1664720994986,-0.043701172,-0.9907837,0.15350342,3.171875,0.890625,0.765625
1664720995011,-0.051757812,-0.9932251,0.13812256,3.234375,0.859375,0.609375
1664720995042,-0.036132812,-0.9907837,0.13812256,2.984375,0.890625,0.671875
1664720995138,-0.051513672,-0.9890747,0.12664795,3.03125,1.328125,0.890625
1664720995140,-0.041992188,-1.0054321,0.12200928,3.484375,0.859375,1.046875
1664720995165,-0.038330078,-0.9890747,0.12005615,2.140625,1.015625,0.515625
1664720995202,-0.04248047,-0.99786377,0.11883545,2.578125,0.796875,0.375
1664720995301,-0.040039062,-0.9990845,0.11785889,1.984375,0.84375,0.484375
1664720995304,-0.045898438,-1.000061,0.11468506,2.890625,0.671875,0.84375
1664720995346,-0.034179688,-0.9907837,0.113464355,1.71875,1.015625,0.234375
1664720995367,-0.03955078,-0.9951782,0.10858154,1.453125,0.046875,0.5
1664720995448,-0.043945312,-1.0012817,0.105895996,0.984375,0.125,0.578125
1664720995451,-0.0390625,-1.0064087,0.101989746,1.359375,-0.265625,0.421875
1664720995482,-0.03930664,-0.9963989,0.10345459,1.171875,-0.28125,0.015625
1664720995525,-0.04296875,-1.000061,0.09979248,0.09375,-0.203125,0.265625
1664720995605,-0.041503906,-0.9976196,0.10491943,-0.96875,0.71875,0.0
1664720995608,-0.047851562,-0.9973755,0.10882568,-0.984375,0.734375,-0.21875
1664720995641,-0.040771484,-0.99713135,0.11810303,-1.0,1.046875,-0.03125
1664720995724,-0.045898438,-0.99884033,0.11077881,-1.453125,1.109375,-0.296875
1664720995728,-0.04638672,-0.99346924,0.11175537,-2.203125,1.0625,-0.046875
1664720995760,-0.046875,-0.9944458,0.112976074,-1.734375,0.890625,0.046875
1664720995797,-0.043701172,-0.9961548,0.11810303,-1.59375,0.90625,-0.21875
1664720995892,-0.05029297,-0.9951782,0.11981201,-1.40625,0.75,-0.03125
1664720995895,-0.04663086,-0.9963989,0.12567139,-2.234375,1.359375,-0.09375
1664720995919,-0.04321289,-0.99346924,0.13031006,-2.484375,1.0,-0.34375
1664720995953,-0.044433594,-0.9902954,0.12054443,-2.78125,1.125,-0.203125
1664720996040,-0.05029297,-0.9873657,0.13690186,-3.46875,0.53125,-0.125
1664720996043,-0.055664062,-0.99884033,0.14666748,-2.25,0.65625,0.03125
1664720996077,-0.051757812,-0.9920044,0.14813232,-2.59375,1.46875,-0.40625
1664720996110,-0.05029297,-0.9885864,0.14788818,-2.125,1.40625,0.0
1664720996201,-0.05126953,-0.98394775,0.15716553,-2.015625,1.359375,0.0
1664720996205,-0.056884766,-0.9949341,0.1515503,-1.203125,1.5625,0.21875
1664720996241,-0.05444336,-0.987854,0.15765381,-2.078125,1.609375,-0.21875
1664720996271,-0.052246094,-0.99346924,0.16033936,-1.125,1.203125,0.25
1664720996353,-0.05102539,-0.9871216,0.15447998,-1.171875,2.3125,0.015625
1664720996355,-0.053710938,-0.9883423,0.15863037,-0.828125,1.1875,0.21875
1664720996394,-0.053222656,-0.9915161,0.16864014,-1.390625,1.984375,0.078125
1664720996481,-0.052734375,-1.0003052,0.16082764,-0.65625,1.71875,-0.046875
1664720996484,-0.051513672,-0.99005127,0.1720581,-1.015625,1.6875,-0.0625
1664720996529,-0.05078125,-0.98883057,0.17059326,-0.328125,1.6875,0.0625
1664720996563,-0.04638672,-0.9920044,0.16571045,-0.546875,1.296875,0.015625
1664720996638,-0.05053711,-0.9920044,0.17230225,-0.734375,1.546875,0.03125
1664720996642,-0.05102539,-0.9859009,0.17254639,0.515625,1.140625,0.234375
1664720996674,-0.049072266,-0.989563,0.17010498,-0.921875,1.65625,-0.015625
1664720996706,-0.053466797,-0.9963989,0.18084717,0.453125,1.25,-0.078125
1664720996793,-0.052490234,-0.9907837,0.17181396,-0.875,1.625,-0.109375
1664720996795,-0.06323242,-0.9927368,0.1762085,0.03125,0.578125,0.453125
1664720996832,-0.053466797,-0.98394775,0.16937256,0.078125,1.5625,0.078125
1664720996866,-0.05419922,-0.98760986,0.17449951,0.6875,1.203125,0.1875
1664720996973,-0.057373047,-0.9834595,0.17474365,0.96875,1.203125,0.46875
1664720996976,-0.05126953,-0.9841919,0.16864014,1.34375,1.3125,0.328125
1664720996987,-0.05493164,-0.9800415,0.16619873,1.0625,1.203125,0.34375
1664720997020,-0.056396484,-0.987854,0.17327881,1.484375,1.109375,0.609375
1664720997122,-0.0546875,-0.991272,0.17132568,2.328125,1.046875,0.515625
1664720997125,-0.051513672,-0.99053955,0.16131592,2.09375,0.78125,0.390625
1664720997144,-0.053466797,-0.9920044,0.16107178,1.4375,1.546875,0.609375
1664720997233,-0.049804688,-0.9951782,0.15423584,2.5625,1.28125,0.625
1664720997237,-0.04663086,-0.9924927,0.15789795,2.484375,0.90625,0.65625
1664720997278,-0.052001953,-0.9932251,0.14959717,2.5625,0.71875,0.75
1664720997301,-0.056152344,-0.99591064,0.15032959,2.671875,0.96875,0.6875
1664720997399,-0.05444336,-0.9898071,0.14593506,2.78125,0.359375,0.9375
1664720997402,-0.044921875,-0.9956665,0.14471436,1.796875,0.078125,0.484375
1664720997425,-0.039794922,-0.9927368,0.14276123,2.28125,1.671875,0.34375
1664720997466,-0.047607422,-0.9951782,0.13519287,3.40625,1.25,0.4375
1664720997549,-0.04345703,-0.98809814,0.13201904,2.40625,1.296875,0.359375
1664720997553,-0.041259766,-0.99835205,0.12591553,2.125,1.421875,0.515625
1664720997596,-0.047607422,-0.99664307,0.12371826,2.265625,0.578125,0.578125
1664720997625,-0.041748047,-0.9944458,0.12322998,2.96875,1.28125,0.390625
1664720997718,-0.046142578,-0.989563,0.12420654,2.828125,1.765625,0.34375
1664720997721,-0.048095703,-0.9963989,0.1161499,2.734375,1.40625,0.53125
1664720997739,-0.041503906,-0.9951782,0.11639404,2.953125,0.90625,0.71875
1664720997772,-0.048828125,-0.99542236,0.10760498,2.15625,0.921875,0.5625
1664720997863,-0.041503906,-0.9932251,0.10784912,1.21875,1.375,0.328125
1664720997868,-0.04345703,-1.0015259,0.10296631,2.34375,0.875,0.46875
1664720997923,-0.04345703,-1.0032349,0.101501465,1.46875,0.78125,0.578125
1664720997984,-0.040039062,-0.9993286,0.10028076,0.5,0.515625,0.5
1664720997987,-0.040771484,-1.0044556,0.093688965,-0.46875,1.171875,-0.03125
1664720998019,-0.041748047,-0.9973755,0.09613037,-1.359375,0.953125,-0.109375
1664720998053,-0.050048828,-0.9968872,0.109313965,-1.484375,0.890625,-0.234375
1664720998145,-0.037109375,-0.9951782,0.10321045,-1.265625,1.1875,-0.328125
1664720998147,-0.048828125,-0.987854,0.10614014,-2.046875,1.109375,-0.765625
1664720998179,-0.05102539,-0.99664307,0.11810303,-1.890625,0.71875,-0.375
1664720998221,-0.03930664,-0.98638916,0.12200928,-3.140625,1.8125,-0.75
1664720998306,-0.057861328,-1.0010376,0.12347412,-1.859375,1.078125,-0.703125
1664720998310,-0.055419922,-0.99420166,0.12322998,-3.234375,1.921875,-0.75
1664720998332,-0.067871094,-0.99224854,0.13494873,-1.03125,1.09375,-0.625
1664720998367,-0.044921875,-0.9951782,0.12835693,-0.5625,2.25,-1.125
1664720998470,-0.044189453,-0.9859009,0.12054443,-0.90625,2.625,-2.609375
1664720998471,-0.04736328,-0.99957275,0.12200928,-0.859375,2.75,-2.578125
1664720998493,-0.03857422,-0.98565674,0.1305542,-1.84375,2.28125,-3.171875
1664720998526,-0.07446289,-1.0083618,0.12908936,-2.203125,1.578125,-3.34375
1664720998637,-0.06982422,-0.98516846,0.15106201,-3.515625,1.640625,-3.140625
1664720998642,-0.08129883,-0.991272,0.15887451,-1.96875,0.90625,-2.515625
1664720998667,-0.09326172,-0.99420166,0.1552124,-1.59375,1.21875,-2.40625
1664720998772,-0.0847168,-0.99346924,0.15692139,-2.03125,0.46875,-1.65625
1664720998774,-0.079833984,-0.9871216,0.16351318,-0.453125,1.203125,-2.453125
1664720998785,-0.091308594,-0.975647,0.16107178,0.59375,0.59375,-1.984375
1664720998803,-0.091796875,-0.98394775,0.1552124,0.28125,0.578125,-1.9375
1664720998896,-0.09716797,-0.9961548,0.14422607,1.015625,1.3125,-1.84375
1664720998899,-0.1159668,-1.006897,0.1408081,-1.109375,0.578125,-0.90625
1664720998928,-0.11254883,-0.97613525,0.15032959,-1.625,1.25,-1.125
1664720998961,-0.103027344,-0.99298096,0.15692139,-0.296875,0.984375,-1.46875
1664720999065,-0.10522461,-0.9751587,0.15423584,-1.5,1.3125,-1.328125
1664720999067,-0.107666016,-0.9920044,0.15789795,-1.0,0.625,-0.8125
1664720999087,-0.10229492,-0.98028564,0.15814209,-2.28125,1.734375,-1.96875
1664720999122,-0.109375,-0.98272705,0.1708374,-0.09375,0.03125,-0.96875
1664720999211,-0.12207031,-0.9780884,0.16351318,-1.125,0.53125,-0.859375
1664720999217,-0.123046875,-0.989563,0.16326904,-1.171875,1.140625,-0.46875
1664720999252,-0.10986328,-0.98443604,0.16375732,-1.296875,1.40625,-0.546875
1664720999289,-0.123291016,-0.9902954,0.16278076,-1.359375,2.046875,-0.359375
1664720999384,-0.10986328,-0.98394775,0.16986084,-1.59375,1.515625,-0.71875
1664720999387,-0.11743164,-0.9837036,0.17279053,0.03125,1.484375,-1.296875
1664720999402,-0.119628906,-0.98809814,0.17230225,0.484375,0.65625,-1.3125
1664720999488,-0.11791992,-0.99176025,0.17791748,0.484375,-0.125,-0.5625
1664720999490,-0.12646484,-0.98321533,0.16864014,-0.4375,0.15625,-0.03125
1664720999535,-0.11791992,-0.9849243,0.17767334,-0.59375,0.0625,0.09375
1664720999565,-0.12695312,-0.9763794,0.18206787,-0.125,0.203125,-0.0625
1664720999647,-0.1237793,-0.9817505,0.18231201,-0.390625,0.125,0.109375
1664720999651,-0.12207031,-0.9898071,0.18109131,-0.8125,0.328125,0.046875
1664720999679,-0.122558594,-0.9780884,0.18231201,-0.796875,0.390625,0.109375
