# Sensor type: Thingy
# Activity type: Sitting bent forward
# Activity code: 4
# Subject id: s1956488
# Notes: 1
timestamp,accel_x,accel_y,accel_z,gyro_x,gyro_y,gyro_z,mag_x,mag_y,mag_z
1664547794625,-0.21679688,-0.2529297,0.98828125,2.1875,4.3125,-2.40625,0.0,0.0,0.0
1664547794685,-0.17382812,-0.234375,0.96484375,1.15625,-2.46875,-2.15625,0.0,0.0,0.0
1664547794703,-0.18164062,-0.19433594,0.97265625,1.3125,2.375,-1.40625,0.0,0.0,0.0
1664547794727,-0.171875,-0.20703125,0.9765625,3.53125,-5.21875,2.96875,0.0,0.0,0.0
1664547794766,-0.17773438,-0.22460938,0.97558594,0.46875,2.0625,-0.3125,0.0,0.0,0.0
1664547794800,-0.18164062,-0.21777344,0.9873047,-0.125,0.90625,-1.125,0.0,0.0,0.0
1664547794827,-0.18945312,-0.21777344,0.9765625,0.34375,1.21875,-0.375,0.0,0.0,0.0
1664547794915,-0.19628906,-0.23339844,0.9814453,1.15625,0.0,0.15625,0.0,0.0,0.0
1664547794976,-0.19042969,-0.22167969,0.9667969,0.96875,0.21875,-0.5,0.0,0.0,0.0
1664547794995,-0.18457031,-0.22558594,0.98046875,1.03125,0.0,-0.4375,-33.125,-47.5,-65.125
1664547795054,-0.18261719,-0.21582031,0.97558594,0.78125,0.28125,-0.875,0.0,0.0,0.0
1664547795074,-0.18457031,-0.21582031,0.9921875,-0.625,0.90625,-1.78125,0.0,0.0,0.0
1664547795097,-0.18554688,-0.20703125,0.9794922,-1.90625,2.59375,-2.53125,0.0,0.0,0.0
1664547795135,-0.19335938,-0.22167969,0.9707031,-2.625,1.75,-2.28125,0.0,0.0,0.0
1664547795160,-0.20117188,-0.22558594,0.9814453,-2.53125,1.15625,-1.25,0.0,0.0,0.0
1664547795191,-0.19921875,-0.25097656,0.9707031,-1.96875,-0.5,-0.1875,0.0,0.0,0.0
1664547795249,-0.19921875,-0.23046875,0.96875,-1.34375,-1.34375,1.3125,0.0,0.0,0.0
1664547795287,-0.17578125,-0.21875,0.9951172,-1.90625,-2.75,1.75,0.0,0.0,0.0
1664547795338,-0.1953125,-0.234375,0.96875,-1.59375,-0.8125,4.3125,0.0,0.0,0.0
1664547795387,-0.16894531,-0.24707031,0.96191406,-0.125,-5.09375,4.1875,0.0,0.0,0.0
1664547795406,-0.17773438,-0.2421875,1.0019531,-2.6875,-0.75,0.28125,0.0,0.0,0.0
1664547795428,-0.16308594,-0.25,0.9794922,-0.3125,-0.6875,-0.25,-32.375,-46.1875,-64.5625
1664547795510,-0.17773438,-0.23535156,0.9863281,-0.8125,0.46875,-0.25,0.0,0.0,0.0
1664547795555,-0.18261719,-0.24707031,0.9785156,0.09375,0.0,-1.34375,0.0,0.0,0.0
1664547795572,-0.17871094,-0.25683594,0.9902344,0.40625,1.03125,-2.34375,0.0,0.0,0.0
1664547795615,-0.18359375,-0.24707031,0.9628906,0.53125,0.78125,-1.71875,0.0,0.0,0.0
1664547795637,-0.18066406,-0.23339844,0.9716797,1.4375,0.46875,-1.0,0.0,0.0,0.0
1664547795668,-0.18359375,-0.23535156,0.96484375,1.15625,-0.625,-1.1875,0.0,0.0,0.0
1664547795755,-0.17578125,-0.22949219,0.97558594,0.78125,0.0,-1.0625,0.0,0.0,0.0
1664547795780,-0.17871094,-0.24316406,0.9716797,0.40625,0.28125,-0.8125,0.0,0.0,0.0
1664547795795,-0.18261719,-0.24023438,0.96484375,0.40625,0.53125,-0.5,0.0,0.0,0.0
1664547795878,-0.17871094,-0.24511719,0.9746094,0.53125,0.78125,-0.5,0.0,0.0,0.0
1664547795923,-0.18847656,-0.23828125,0.9716797,0.65625,0.65625,-0.5625,0.0,0.0,0.0
1664547795979,-0.18457031,-0.24804688,0.9667969,0.96875,0.28125,-0.5625,0.0,0.0,0.0
1664547796013,-0.1796875,-0.23730469,0.96972656,0.96875,0.28125,-0.5,-33.125,-47.1875,-64.5625
1664547796028,-0.18164062,-0.24023438,0.98339844,0.90625,0.21875,-0.75,0.0,0.0,0.0
1664547796070,-0.18066406,-0.24023438,0.99316406,0.65625,0.28125,-1.0625,0.0,0.0,0.0
1664547796124,-0.18554688,-0.2421875,0.9707031,0.65625,0.40625,-1.25,0.0,0.0,0.0
1664547796154,-0.18457031,-0.24121094,0.98535156,0.53125,0.21875,-1.0625,0.0,0.0,0.0
1664547796187,-0.1796875,-0.2421875,0.98046875,0.40625,0.53125,-0.9375,0.0,0.0,0.0
1664547796257,-0.17675781,-0.24707031,0.98535156,0.65625,0.28125,-0.875,0.0,0.0,0.0
1664547796288,-0.17285156,-0.2421875,0.97265625,0.71875,0.40625,-0.625,0.0,0.0,0.0
1664547796297,-0.17089844,-0.23730469,0.9716797,0.78125,0.40625,-0.4375,0.0,0.0,0.0
1664547796343,-0.18164062,-0.23828125,0.9785156,0.84375,0.46875,-0.3125,0.0,0.0,0.0
1664547796373,-0.18359375,-0.23535156,0.9736328,0.71875,0.28125,-0.3125,0.0,0.0,0.0
1664547796393,-0.18066406,-0.24023438,0.9746094,0.78125,0.28125,-0.375,0.0,0.0,0.0
1664547796450,-0.17675781,-0.23925781,0.98828125,0.40625,0.28125,-0.375,-32.6875,-48.875,-65.625
1664547796480,-0.1796875,-0.23925781,0.9707031,0.46875,0.40625,-0.1875,0.0,0.0,0.0
1664547796507,-0.171875,-0.23730469,0.98339844,0.65625,0.34375,-0.125,0.0,0.0,0.0
1664547796624,-0.18554688,-0.24121094,0.9785156,0.40625,0.34375,-0.125,0.0,0.0,0.0
1664547796672,-0.1796875,-0.24414062,0.98046875,0.15625,0.40625,-0.375,0.0,0.0,0.0
1664547796737,-0.18359375,-0.23632812,0.9746094,0.40625,0.65625,-0.4375,0.0,0.0,0.0
1664547796779,-0.18164062,-0.2421875,0.96875,0.21875,0.40625,-0.1875,0.0,0.0,0.0
1664547796797,-0.18457031,-0.23730469,0.96191406,0.40625,0.03125,-0.25,0.0,0.0,0.0
1664547796828,-0.17871094,-0.25195312,0.9580078,0.34375,0.21875,-0.3125,0.0,0.0,0.0
1664547796865,-0.18457031,-0.24316406,0.9902344,0.65625,0.03125,-0.3125,0.0,0.0,0.0
1664547796905,-0.18359375,-0.24414062,0.98046875,0.78125,0.40625,-0.4375,0.0,0.0,0.0
1664547796915,-0.17578125,-0.24804688,0.9794922,0.90625,0.46875,-0.5625,0.0,0.0,0.0
1664547796959,-0.18554688,-0.24121094,0.96972656,1.15625,0.71875,-0.4375,0.0,0.0,0.0
1664547796984,-0.18457031,-0.22851562,0.96972656,1.375,0.40625,0.0,-32.375,-47.5,-65.875
1664547796999,-0.18359375,-0.22949219,0.96972656,0.90625,-0.125,0.34375,0.0,0.0,0.0
1664547797071,-0.18164062,-0.23242188,0.98339844,0.65625,0.15625,0.28125,0.0,0.0,0.0
1664547797095,-0.1875,-0.23535156,0.9658203,0.03125,-0.3125,0.65625,0.0,0.0,0.0
1664547797133,-0.18554688,-0.24511719,0.9794922,0.09375,-0.3125,0.15625,0.0,0.0,0.0
1664547797195,-0.17382812,-0.23144531,0.97265625,-0.0625,-0.625,-0.4375,0.0,0.0,0.0
1664547797228,-0.17773438,-0.24707031,0.9785156,0.0,0.0,-0.5625,0.0,0.0,0.0
1664547797246,-0.171875,-0.23535156,0.9892578,0.0,0.34375,-0.625,0.0,0.0,0.0
1664547797299,-0.17871094,-0.22851562,0.96875,-0.25,0.59375,-0.5625,0.0,0.0,0.0
1664547797329,-0.171875,-0.24023438,0.9794922,0.0,0.03125,-0.25,0.0,0.0,0.0
1664547797372,-0.1796875,-0.24414062,0.9609375,0.34375,0.21875,-0.3125,0.0,0.0,0.0
1664547797426,-0.18652344,-0.24707031,0.9707031,0.40625,0.09375,0.09375,0.0,0.0,0.0
1664547797458,-0.18066406,-0.24023438,0.98046875,0.40625,-0.1875,0.0,-32.5625,-48.6875,-65.75
1664547797498,-0.16796875,-0.24511719,0.9707031,0.40625,0.09375,-0.4375,0.0,0.0,0.0
1664547797536,-0.17773438,-0.25,0.9873047,0.65625,0.40625,-0.1875,0.0,0.0,0.0
1664547797561,-0.17285156,-0.24902344,0.9765625,0.78125,0.65625,-0.3125,0.0,0.0,0.0
1664547797589,-0.17382812,-0.25,0.9765625,1.6875,0.0,-0.1875,0.0,0.0,0.0
1664547797675,-0.17285156,-0.234375,0.9746094,1.75,0.0,0.0,0.0,0.0,0.0
1664547797697,-0.17480469,-0.22949219,0.97558594,1.03125,0.53125,-0.1875,0.0,0.0,0.0
1664547797714,-0.17773438,-0.23046875,0.9707031,0.15625,1.03125,-0.625,0.0,0.0,0.0
1664547797793,-0.1875,-0.23925781,0.9716797,0.03125,0.65625,-0.625,0.0,0.0,0.0
1664547797803,-0.18554688,-0.25683594,0.96484375,0.28125,0.53125,-0.75,0.0,0.0,0.0
1664547797837,-0.18066406,-0.24511719,0.9746094,0.84375,-0.3125,-0.625,0.0,0.0,0.0
1664547797902,-0.18164062,-0.25195312,0.9902344,1.8125,-0.5625,-0.375,0.0,0.0,0.0
1664547797925,-0.1640625,-0.23242188,0.9785156,2.0625,-0.75,-0.125,0.0,0.0,0.0
1664547797947,-0.16503906,-0.22753906,0.9921875,0.46875,0.46875,0.0,-32.6875,-47.8125,-63.8125
1664547798029,-0.18066406,-0.2265625,0.98046875,-0.875,1.625,-0.3125,0.0,0.0,0.0
1664547798061,-0.18554688,-0.24121094,0.9785156,-0.5625,0.96875,-0.3125,0.0,0.0,0.0
1664547798094,-0.18359375,-0.24609375,0.97265625,0.09375,-0.1875,0.15625,0.0,0.0,0.0
1664547798164,-0.18164062,-0.24707031,0.96484375,0.65625,-0.625,0.09375,0.0,0.0,0.0
1664547798190,-0.17382812,-0.24902344,0.9824219,0.78125,-0.3125,-0.125,0.0,0.0,0.0
1664547798211,-0.16699219,-0.23925781,0.984375,0.78125,-0.1875,-0.125,0.0,0.0,0.0
1664547798269,-0.17675781,-0.23242188,0.9794922,0.53125,0.65625,-0.375,0.0,0.0,0.0
1664547798291,-0.17578125,-0.23925781,0.9824219,0.53125,0.53125,-0.125,0.0,0.0,0.0
1664547798311,-0.18945312,-0.2421875,0.9765625,0.28125,0.21875,0.0,0.0,0.0,0.0
1664547798370,-0.17578125,-0.23730469,0.9814453,0.46875,0.28125,-0.25,0.0,0.0,0.0
1664547798406,-0.1875,-0.24023438,0.96484375,0.71875,0.0,-0.25,0.0,0.0,0.0
1664547798441,-0.1796875,-0.23632812,0.96875,0.65625,0.09375,-0.375,-32.6875,-48.25,-65.875
1664547798495,-0.19335938,-0.24511719,0.9794922,0.53125,0.21875,-0.5625,0.0,0.0,0.0
1664547798522,-0.17675781,-0.24316406,0.9814453,0.46875,0.34375,-0.4375,0.0,0.0,0.0
1664547798548,-0.17675781,-0.23828125,0.9736328,0.71875,0.03125,-0.25,0.0,0.0,0.0
1664547798623,-0.18066406,-0.22753906,0.9667969,0.28125,0.15625,-0.1875,0.0,0.0,0.0
1664547798639,-0.171875,-0.25390625,0.9716797,0.65625,0.21875,-0.375,0.0,0.0,0.0
1664547798673,-0.17871094,-0.234375,0.9746094,0.21875,0.28125,-0.375,0.0,0.0,0.0
1664547798733,-0.17578125,-0.23828125,0.9736328,0.71875,0.21875,-0.25,0.0,0.0,0.0
1664547798800,-0.17480469,-0.24121094,0.9785156,0.21875,0.34375,-0.375,0.0,0.0,0.0
1664547798820,-0.17285156,-0.24023438,0.9667969,0.34375,0.21875,-0.375,0.0,0.0,0.0
1664547798856,-0.17675781,-0.23925781,0.9638672,0.34375,0.09375,-0.5,0.0,0.0,0.0
1664547798888,-0.17675781,-0.23730469,0.98046875,0.65625,0.0,-0.3125,0.0,0.0,0.0
1664547798942,-0.18359375,-0.2421875,0.9746094,0.40625,0.0,-0.4375,0.0,0.0,0.0
1664547798969,-0.18164062,-0.2421875,0.9814453,0.96875,0.65625,-0.375,-33.75,-47.5,-64.25
1664547799001,-0.1796875,-0.24511719,0.9863281,0.65625,0.15625,-0.25,0.0,0.0,0.0
1664547799026,-0.17675781,-0.24121094,0.9746094,0.71875,0.15625,-0.375,0.0,0.0,0.0
1664547799088,-0.17089844,-0.24121094,0.9814453,0.78125,0.03125,-0.4375,0.0,0.0,0.0
1664547799160,-0.17382812,-0.234375,0.9785156,0.46875,0.03125,-0.5,0.0,0.0,0.0
1664547799223,-0.18554688,-0.21972656,0.98828125,-0.875,1.5,-0.6875,0.0,0.0,0.0
1664547799272,-0.19042969,-0.21289062,0.96484375,-1.65625,1.75,0.71875,0.0,0.0,0.0
1664547799292,-0.19824219,-0.24316406,0.9609375,-1.65625,0.71875,5.0,0.0,0.0,0.0
1664547799334,-0.203125,-0.25878906,0.9794922,-0.25,-1.25,7.6875,0.0,0.0,0.0
1664547799404,-0.18457031,-0.24414062,0.9794922,-0.1875,-1.78125,7.90625,0.0,0.0,0.0
1664547799421,-0.17089844,-0.25,0.97265625,0.15625,-2.40625,7.125,0.0,0.0,0.0
1664547799439,-0.1640625,-0.2265625,0.98535156,-0.0625,-1.3125,4.375,0.0,0.0,0.0
1664547799485,-0.16796875,-0.24414062,0.9785156,-0.625,-1.0,1.8125,-31.8125,-48.6875,-66.0625
1664547799496,-0.17871094,-0.25683594,0.98046875,-0.1875,-0.75,0.28125,0.0,0.0,0.0
1664547799537,-0.16992188,-0.25390625,0.9814453,-0.3125,-0.3125,-1.53125,0.0,0.0,0.0
1664547799572,-0.171875,-0.24902344,0.9736328,0.15625,0.03125,-3.0625,0.0,0.0,0.0
1664547799597,-0.16503906,-0.25878906,0.9628906,0.46875,0.28125,-3.96875,0.0,0.0,0.0
1664547799634,-0.16894531,-0.25,0.9824219,0.84375,0.71875,-4.71875,0.0,0.0,0.0
1664547799697,-0.18066406,-0.25195312,0.9814453,0.90625,1.15625,-5.15625,0.0,0.0,0.0
1664547799720,-0.18164062,-0.2529297,0.97558594,1.21875,1.4375,-5.25,0.0,0.0,0.0
1664547799767,-0.18457031,-0.24707031,0.9824219,1.4375,1.4375,-4.65625,0.0,0.0,0.0
1664547799811,-0.18554688,-0.23730469,0.9716797,1.03125,1.3125,-3.3125,0.0,0.0,0.0
1664547799859,-0.18945312,-0.23242188,0.96972656,0.96875,0.96875,-1.71875,0.0,0.0,0.0
1664547799892,-0.18945312,-0.23828125,0.9628906,1.09375,0.28125,0.34375,0.0,0.0,0.0
1664547799945,-0.18652344,-0.24316406,0.97265625,1.09375,-0.5,1.6875,0.0,0.0,0.0
1664547799965,-0.17871094,-0.2421875,0.9785156,0.46875,-0.1875,2.0625,-32.875,-48.4375,-64.375
1664547799990,-0.171875,-0.24414062,0.98535156,0.46875,-0.25,2.0625,0.0,0.0,0.0
1664547800053,-0.18066406,-0.24902344,0.953125,0.40625,0.03125,1.5,0.0,0.0,0.0
1664547800080,-0.1796875,-0.25195312,0.9863281,0.15625,0.65625,0.84375,0.0,0.0,0.0
1664547800121,-0.17578125,-0.24511719,0.96972656,0.65625,0.15625,0.0,0.0,0.0,0.0
1664547800174,-0.18554688,-0.25,0.9765625,0.59375,-0.1875,-0.625,0.0,0.0,0.0
1664547800200,-0.17382812,-0.25,0.97753906,0.90625,-0.375,-1.25,0.0,0.0,0.0
1664547800227,-0.16992188,-0.25195312,0.9736328,1.09375,0.03125,-1.78125,0.0,0.0,0.0
1664547800298,-0.16796875,-0.2421875,0.97558594,0.84375,0.15625,-2.28125,0.0,0.0,0.0
1664547800334,-0.16601562,-0.2421875,0.97265625,0.78125,0.78125,-2.40625,0.0,0.0,0.0
1664547800359,-0.17382812,-0.24804688,0.9667969,0.84375,0.71875,-2.40625,0.0,0.0,0.0
1664547800413,-0.18066406,-0.24707031,0.97265625,0.84375,0.53125,-1.90625,0.0,0.0,0.0
1664547800466,-0.18554688,-0.24707031,0.9765625,1.3125,0.09375,-1.53125,-31.8125,-47.6875,-65.4375
1664547800506,-0.16894531,-0.23339844,0.9736328,1.09375,0.09375,-1.1875,0.0,0.0,0.0
1664547800557,-0.18164062,-0.23632812,0.97753906,1.03125,0.03125,-0.5625,0.0,0.0,0.0
1664547800583,-0.17578125,-0.24414062,0.9863281,0.65625,0.40625,-0.25,0.0,0.0,0.0
1664547800617,-0.18164062,-0.2421875,0.98535156,0.21875,0.34375,0.15625,0.0,0.0,0.0
1664547800661,-0.171875,-0.22949219,0.97753906,0.0,0.53125,0.15625,0.0,0.0,0.0
1664547800706,-0.17382812,-0.25,0.97753906,-0.125,0.59375,0.0,0.0,0.0,0.0
1664547800725,-0.171875,-0.23828125,0.9892578,0.15625,0.15625,0.15625,0.0,0.0,0.0
1664547800772,-0.17675781,-0.24804688,0.9707031,0.15625,0.03125,0.0,0.0,0.0,0.0
1664547800801,-0.17871094,-0.2578125,0.9716797,0.46875,0.0,-0.3125,0.0,0.0,0.0
1664547800837,-0.17773438,-0.24707031,0.97265625,0.71875,-0.4375,-0.3125,0.0,0.0,0.0
1664547800888,-0.17089844,-0.24316406,0.96484375,0.96875,-0.3125,-0.25,0.0,0.0,0.0
1664547800923,-0.1796875,-0.2421875,0.9765625,0.65625,0.0,-0.375,0.0,0.0,0.0
1664547800952,-0.17089844,-0.2421875,0.9716797,0.71875,0.03125,-0.3125,-31.1875,-47.0625,-63.625
1664547801017,-0.171875,-0.24804688,0.97265625,0.34375,0.21875,-0.3125,0.0,0.0,0.0
1664547801046,-0.17773438,-0.24804688,0.9785156,0.46875,0.34375,-0.125,0.0,0.0,0.0
1664547801067,-0.17285156,-0.24707031,0.96875,0.34375,0.65625,-0.1875,0.0,0.0,0.0
1664547801153,-0.16503906,-0.23535156,0.98046875,0.40625,0.46875,-0.25,0.0,0.0,0.0
1664547801183,-0.16699219,-0.25,0.9736328,0.71875,0.65625,0.0,0.0,0.0,0.0
1664547801263,-0.17382812,-0.2421875,0.96191406,0.53125,0.71875,0.03125,0.0,0.0,0.0
1664547801288,-0.17285156,-0.2529297,0.9765625,0.84375,0.46875,0.03125,0.0,0.0,0.0
1664547801318,-0.17285156,-0.24023438,0.9707031,1.21875,0.53125,0.03125,0.0,0.0,0.0
1664547801355,-0.17089844,-0.23535156,0.9638672,0.40625,0.46875,-0.25,0.0,0.0,0.0
1664547801400,-0.18066406,-0.25390625,0.97753906,-0.1875,0.34375,-0.5625,0.0,0.0,0.0
1664547801440,-0.17089844,-0.24316406,0.96484375,0.09375,0.0,-0.625,0.0,0.0,0.0
1664547801475,-0.17675781,-0.24511719,0.97753906,-0.1875,0.34375,-0.9375,-33.75,-47.8125,-64.875
1664547801518,-0.18164062,-0.24804688,0.9814453,-0.0625,0.09375,-1.0,0.0,0.0,0.0
1664547801550,-0.17089844,-0.25195312,0.96777344,-0.1875,0.03125,-1.3125,0.0,0.0,0.0
1664547801568,-0.16894531,-0.25,0.98535156,0.65625,0.0,-0.9375,0.0,0.0,0.0
1664547801629,-0.17675781,-0.2578125,0.9824219,0.71875,0.28125,-0.8125,0.0,0.0,0.0
1664547801635,-0.15917969,-0.2529297,0.9746094,1.03125,1.09375,-0.625,0.0,0.0,0.0
1664547801671,-0.16894531,-0.24121094,0.96972656,1.375,1.3125,-0.1875,0.0,0.0,0.0
1664547801733,-0.171875,-0.23828125,0.9638672,2.0,0.40625,0.71875,0.0,0.0,0.0
1664547801769,-0.17382812,-0.2421875,0.96484375,1.6875,0.53125,0.84375,0.0,0.0,0.0
1664547801809,-0.171875,-0.22851562,0.9814453,0.71875,0.78125,0.34375,0.0,0.0,0.0
1664547801859,-0.17285156,-0.24121094,0.9863281,0.96875,0.71875,0.34375,0.0,0.0,0.0
1664547801884,-0.18457031,-0.24316406,0.984375,0.15625,0.65625,-0.125,0.0,0.0,0.0
1664547801917,-0.18164062,-0.24414062,0.9667969,0.65625,0.09375,-0.1875,0.0,0.0,0.0
1664547801977,-0.18164062,-0.24121094,0.9609375,0.71875,-0.25,-0.25,-33.4375,-46.75,-65.125
1664547801999,-0.17480469,-0.24511719,0.98046875,0.71875,-0.3125,-0.4375,0.0,0.0,0.0
1664547802025,-0.16015625,-0.24316406,0.9746094,0.78125,0.03125,-0.5625,0.0,0.0,0.0
1664547802100,-0.16894531,-0.24023438,0.9638672,0.28125,0.28125,-0.5,0.0,0.0,0.0
1664547802135,-0.17382812,-0.24121094,0.9941406,0.28125,0.40625,-0.375,0.0,0.0,0.0
1664547802169,-0.17382812,-0.23632812,0.9746094,0.0,0.71875,-0.3125,0.0,0.0,0.0
1664547802219,-0.171875,-0.24707031,0.98339844,0.53125,0.28125,0.0,0.0,0.0,0.0
1664547802248,-0.18359375,-0.24414062,0.96484375,0.46875,0.53125,-0.1875,0.0,0.0,0.0
1664547802266,-0.17382812,-0.24023438,0.96191406,0.84375,0.28125,-0.3125,0.0,0.0,0.0
1664547802359,-0.16796875,-0.24902344,0.98046875,0.84375,0.21875,-0.1875,0.0,0.0,0.0
1664547802400,-0.17480469,-0.24023438,0.97558594,0.84375,0.28125,0.09375,0.0,0.0,0.0
1664547802424,-0.1796875,-0.2421875,0.9736328,0.65625,0.78125,0.0,0.0,0.0,0.0
1664547802449,-0.17480469,-0.24316406,0.97265625,0.78125,0.09375,0.0,-34.0625,-47.375,-66.375
1664547802479,-0.17578125,-0.24804688,0.9765625,0.65625,0.21875,-0.5,0.0,0.0,0.0
1664547802514,-0.18066406,-0.24414062,0.97558594,0.53125,0.15625,-0.4375,0.0,0.0,0.0
1664547802568,-0.1796875,-0.23828125,0.9736328,0.90625,0.21875,-0.25,0.0,0.0,0.0
1664547802597,-0.171875,-0.24804688,0.9785156,0.90625,0.46875,-0.125,0.0,0.0,0.0
1664547802635,-0.18359375,-0.24804688,0.9746094,0.65625,0.46875,0.0,0.0,0.0,0.0
1664547802712,-0.17675781,-0.24316406,0.96972656,0.84375,0.21875,0.0,0.0,0.0,0.0
1664547802740,-0.16992188,-0.24902344,0.9765625,1.3125,0.0,0.40625,0.0,0.0,0.0
1664547802767,-0.17382812,-0.24316406,0.9707031,1.03125,-0.375,0.03125,0.0,0.0,0.0
1664547802807,-0.17675781,-0.24707031,0.98046875,0.90625,-0.1875,-0.1875,0.0,0.0,0.0
1664547802844,-0.171875,-0.23242188,0.96191406,0.71875,-0.375,-0.4375,0.0,0.0,0.0
1664547802876,-0.16992188,-0.24511719,0.96972656,0.78125,-0.4375,-0.6875,0.0,0.0,0.0
1664547802930,-0.18164062,-0.24121094,0.9746094,0.40625,-0.1875,-0.875,0.0,0.0,0.0
1664547803008,-0.17285156,-0.24902344,0.96777344,0.40625,0.09375,-0.6875,-30.625,-47.8125,-65.625
1664547803046,-0.17773438,-0.24121094,0.9765625,0.65625,0.0,-0.5,0.0,0.0,0.0
1664547803112,-0.171875,-0.24414062,0.9667969,0.34375,0.09375,-0.5,0.0,0.0,0.0
1664547803152,-0.17285156,-0.24316406,0.9736328,0.59375,-0.125,-0.375,0.0,0.0,0.0
1664547803187,-0.17285156,-0.23535156,0.97558594,0.46875,-0.5,-0.4375,0.0,0.0,0.0
1664547803238,-0.17675781,-0.23828125,0.98339844,0.65625,-0.25,-0.625,0.0,0.0,0.0
1664547803254,-0.17285156,-0.2529297,0.9638672,0.59375,-0.375,-0.5625,0.0,0.0,0.0
1664547803282,-0.17089844,-0.24707031,0.9892578,0.71875,0.28125,-0.4375,0.0,0.0,0.0
1664547803311,-0.17480469,-0.24609375,0.97558594,0.65625,0.09375,-0.375,0.0,0.0,0.0
1664547803357,-0.16699219,-0.24023438,0.97265625,0.34375,0.46875,-0.3125,0.0,0.0,0.0
1664547803379,-0.17089844,-0.24121094,0.9921875,0.65625,0.0,-0.1875,0.0,0.0,0.0
1664547803423,-0.16894531,-0.24316406,0.9707031,0.53125,0.34375,-0.25,0.0,0.0,0.0
1664547803443,-0.17089844,-0.24414062,0.96777344,0.65625,0.03125,-0.1875,-30.875,-48.875,-63.8125
1664547803497,-0.17578125,-0.24902344,0.97558594,0.34375,0.0,-0.4375,0.0,0.0,0.0
1664547803528,-0.16210938,-0.24609375,0.98046875,0.40625,-0.375,-0.3125,0.0,0.0,0.0
1664547803573,-0.16308594,-0.24316406,0.96191406,0.65625,0.0,-0.25,0.0,0.0,0.0
1664547803594,-0.16796875,-0.2421875,0.9638672,0.53125,0.0,-0.4375,0.0,0.0,0.0
1664547803656,-0.16992188,-0.24511719,0.9658203,0.84375,0.15625,-0.1875,0.0,0.0,0.0
1664547803678,-0.16796875,-0.24707031,0.9716797,0.96875,-0.1875,-0.375,0.0,0.0,0.0
1664547803708,-0.18164062,-0.234375,0.9638672,0.46875,0.21875,-0.25,0.0,0.0,0.0
1664547803799,-0.171875,-0.23242188,0.96972656,0.84375,0.0,-0.125,0.0,0.0,0.0
1664547803829,-0.171875,-0.24707031,0.9873047,0.34375,0.09375,-0.3125,0.0,0.0,0.0
1664547803844,-0.171875,-0.23828125,0.9824219,0.46875,0.03125,-0.5,0.0,0.0,0.0
1664547803906,-0.16699219,-0.23632812,0.9716797,0.59375,-0.25,-0.6875,0.0,0.0,0.0
1664547803917,-0.16308594,-0.2421875,0.9814453,0.71875,0.0,-0.9375,0.0,0.0,0.0
1664547803955,-0.1796875,-0.24414062,0.97265625,0.71875,-0.8125,-0.9375,-32.5625,-47.6875,-65.0
1664547804023,-0.17773438,-0.23144531,0.9765625,1.15625,-0.5625,-1.46875,0.0,0.0,0.0
1664547804057,-0.16210938,-0.23339844,0.97558594,1.3125,-1.53125,-1.1875,0.0,0.0,0.0
1664547804081,-0.15527344,-0.23730469,0.97558594,2.3125,-1.90625,-1.3125,0.0,0.0,0.0
1664547804127,-0.15820312,-0.23730469,0.9736328,2.78125,-2.09375,-0.8125,0.0,0.0,0.0
1664547804165,-0.16699219,-0.24121094,0.96191406,1.8125,-2.21875,-0.625,0.0,0.0,0.0
1664547804188,-0.1484375,-0.2421875,0.9863281,1.3125,-0.375,-0.8125,0.0,0.0,0.0
1664547804250,-0.15722656,-0.24023438,0.97753906,-0.0625,0.78125,-1.46875,0.0,0.0,0.0
1664547804276,-0.15820312,-0.23828125,0.97558594,0.15625,0.90625,-1.25,0.0,0.0,0.0
1664547804328,-0.16699219,-0.23242188,0.9736328,0.0,0.90625,-1.125,0.0,0.0,0.0
1664547804367,-0.16796875,-0.24414062,0.9746094,0.34375,0.53125,-0.6875,0.0,0.0,0.0
1664547804399,-0.16503906,-0.22949219,0.96191406,0.0,0.46875,-0.4375,0.0,0.0,0.0
1664547804429,-0.16601562,-0.23144531,0.9902344,0.53125,0.03125,0.0,-31.1875,-47.6875,-65.75
1664547804520,-0.15722656,-0.23632812,0.96972656,0.0,0.84375,-0.125,0.0,0.0,0.0
1664547804553,-0.16308594,-0.24511719,0.9824219,0.15625,0.96875,0.03125,0.0,0.0,0.0
1664547804592,-0.16015625,-0.24511719,0.9824219,-0.1875,1.03125,-0.1875,0.0,0.0,0.0
1664547804621,-0.16308594,-0.23925781,0.97558594,0.0,1.625,0.28125,0.0,0.0,0.0
1664547804641,-0.16503906,-0.24511719,0.9785156,0.03125,1.15625,0.34375,0.0,0.0,0.0
1664547804673,-0.16796875,-0.24121094,0.98046875,0.34375,0.65625,0.65625,0.0,0.0,0.0
1664547804754,-0.16699219,-0.24511719,0.9863281,0.65625,1.5625,0.65625,0.0,0.0,0.0
1664547804797,-0.16699219,-0.24121094,0.9736328,0.09375,1.03125,0.34375,0.0,0.0,0.0
1664547804825,-0.16113281,-0.24023438,0.96972656,0.28125,1.4375,0.65625,0.0,0.0,0.0
1664547804890,-0.16601562,-0.22070312,0.9794922,-0.25,1.03125,0.65625,0.0,0.0,0.0
1664547804922,-0.17089844,-0.23242188,0.97558594,0.09375,0.71875,1.03125,0.0,0.0,0.0
1664547804957,-0.17285156,-0.24804688,0.98828125,-0.3125,0.59375,1.09375,0.0,0.0,0.0
1664547805002,-0.17382812,-0.24804688,0.9658203,-0.1875,-0.0625,1.3125,-31.1875,-49.1875,-65.4375
1664547805019,-0.16015625,-0.25,0.9765625,0.09375,-0.125,1.5625,0.0,0.0,0.0
1664547805038,-0.17089844,-0.25,0.98339844,0.28125,-0.375,1.375,0.0,0.0,0.0
1664547805099,-0.16308594,-0.24707031,0.9667969,0.71875,0.15625,1.3125,0.0,0.0,0.0
1664547805131,-0.15917969,-0.24316406,0.9794922,0.59375,-0.3125,0.84375,0.0,0.0,0.0
1664547805172,-0.16796875,-0.24023438,0.9873047,0.65625,0.21875,0.71875,0.0,0.0,0.0
1664547805207,-0.16992188,-0.23535156,0.9765625,0.40625,0.71875,-0.125,0.0,0.0,0.0
1664547805238,-0.17773438,-0.24902344,0.98046875,0.28125,0.78125,-0.3125,0.0,0.0,0.0
1664547805277,-0.18457031,-0.24609375,0.97265625,0.71875,0.34375,-0.6875,0.0,0.0,0.0
1664547805388,-0.1640625,-0.23925781,0.9746094,0.65625,0.46875,-0.75,0.0,0.0,0.0
1664547805389,-0.17285156,-0.24121094,0.9746094,0.96875,-0.625,-0.4375,0.0,0.0,0.0
1664547805392,-0.1640625,-0.24804688,0.96875,1.3125,0.0,-0.625,0.0,0.0,0.0
1664547805516,-0.15429688,-0.24707031,0.95703125,1.4375,-0.125,-1.25,-32.375,-46.4375,-65.875
1664547805564,-0.16992188,-0.24414062,0.98535156,1.3125,0.28125,-1.1875,0.0,0.0,0.0
1664547805567,-0.171875,-0.22460938,0.984375,1.625,0.28125,-1.71875,0.0,0.0,0.0
1664547805605,-0.17773438,-0.23632812,0.9785156,1.21875,0.34375,-2.15625,0.0,0.0,0.0
1664547805630,-0.17382812,-0.23242188,0.9765625,0.40625,0.21875,-1.84375,0.0,0.0,0.0
1664547805669,-0.17382812,-0.24414062,0.9794922,0.28125,0.21875,-1.90625,0.0,0.0,0.0
1664547805758,-0.17089844,-0.23535156,0.9716797,0.59375,-0.4375,-1.40625,0.0,0.0,0.0
1664547805802,-0.16699219,-0.23730469,0.9736328,1.03125,-0.5,-0.875,0.0,0.0,0.0
1664547805858,-0.16308594,-0.23828125,0.984375,0.65625,0.0,-0.875,0.0,0.0,0.0
1664547805874,-0.16894531,-0.23535156,0.9785156,0.65625,0.46875,-0.375,0.0,0.0,0.0
1664547805905,-0.17480469,-0.24414062,0.9707031,1.09375,0.21875,0.03125,0.0,0.0,0.0
1664547805941,-0.1640625,-0.234375,0.9814453,1.9375,-0.4375,0.53125,0.0,0.0,0.0
1664547805992,-0.15625,-0.24511719,0.9667969,1.5625,-0.3125,0.34375,0.0,0.0,0.0
1664547806006,-0.16113281,-0.22851562,0.9736328,1.625,-0.1875,0.34375,-31.5,-48.4375,-65.0
1664547806040,-0.16796875,-0.23144531,0.9785156,1.15625,0.21875,0.09375,0.0,0.0,0.0
1664547806097,-0.16113281,-0.23339844,0.9863281,0.78125,0.53125,0.15625,0.0,0.0,0.0
1664547806117,-0.16992188,-0.23144531,0.9873047,1.03125,0.0,0.40625,0.0,0.0,0.0
1664547806137,-0.17578125,-0.234375,0.98339844,0.90625,-0.25,0.34375,0.0,0.0,0.0
1664547806211,-0.16113281,-0.22265625,0.9814453,1.09375,-0.6875,0.65625,0.0,0.0,0.0
1664547806231,-0.17089844,-0.23925781,0.96777344,1.15625,-0.6875,0.65625,0.0,0.0,0.0
1664547806261,-0.16113281,-0.24121094,0.99316406,1.09375,-0.9375,0.28125,0.0,0.0,0.0
1664547806302,-0.16503906,-0.22949219,0.9746094,1.28125,-0.625,0.28125,0.0,0.0,0.0
1664547806342,-0.16699219,-0.23046875,0.98046875,1.4375,-0.375,0.21875,0.0,0.0,0.0
1664547806358,-0.1640625,-0.23339844,0.98339844,1.4375,-0.125,0.28125,0.0,0.0,0.0
1664547806417,-0.15722656,-0.23242188,0.9814453,1.3125,0.46875,-0.25,0.0,0.0,0.0
1664547806436,-0.15136719,-0.22753906,0.98535156,0.78125,0.71875,-0.5625,-30.875,-46.75,-64.25
1664547806473,-0.16113281,-0.23242188,0.9814453,0.96875,0.65625,-1.0,0.0,0.0,0.0
1664547806535,-0.16699219,-0.23144531,0.96777344,0.71875,0.65625,-1.65625,0.0,0.0,0.0
1664547806562,-0.16992188,-0.23535156,0.9902344,0.65625,0.0,-1.46875,0.0,0.0,0.0
1664547806586,-0.16503906,-0.22460938,0.97558594,0.65625,0.21875,-1.34375,0.0,0.0,0.0
1664547806659,-0.16113281,-0.22851562,0.98828125,0.21875,0.0,-0.9375,0.0,0.0,0.0
1664547806677,-0.16601562,-0.22753906,0.9746094,0.0,0.09375,-1.125,0.0,0.0,0.0
1664547806712,-0.15429688,-0.22460938,0.9824219,0.03125,0.09375,-0.8125,0.0,0.0,0.0
1664547806772,-0.16308594,-0.24023438,0.9951172,0.34375,-0.125,-0.3125,0.0,0.0,0.0
1664547806826,-0.15917969,-0.23339844,0.96875,0.15625,0.09375,-0.3125,0.0,0.0,0.0
1664547806868,-0.15136719,-0.22558594,0.96875,0.65625,0.09375,-0.1875,0.0,0.0,0.0
1664547806930,-0.16210938,-0.23339844,0.9794922,0.90625,-0.4375,0.21875,0.0,0.0,0.0
1664547806937,-0.171875,-0.23144531,0.97558594,0.71875,0.28125,-0.125,0.0,0.0,0.0
1664547806956,-0.1640625,-0.22949219,0.98339844,0.09375,0.53125,-0.625,-32.5625,-47.6875,-65.75
1664547807030,-0.15722656,-0.23632812,0.9746094,0.15625,0.46875,-0.375,0.0,0.0,0.0
1664547807060,-0.15625,-0.23828125,0.9716797,0.15625,-0.1875,0.03125,0.0,0.0,0.0
1664547807086,-0.1640625,-0.23046875,0.99121094,0.46875,0.21875,0.28125,0.0,0.0,0.0
1664547807127,-0.14941406,-0.22460938,0.97558594,-0.0625,0.0,0.21875,0.0,0.0,0.0
1664547807167,-0.14746094,-0.24316406,0.9892578,0.84375,0.46875,0.65625,0.0,0.0,0.0
1664547807188,-0.16210938,-0.24414062,0.98339844,0.03125,0.53125,0.28125,0.0,0.0,0.0
1664547807248,-0.16113281,-0.24316406,0.98046875,0.34375,0.78125,0.0,0.0,0.0,0.0
1664547807296,-0.16503906,-0.24316406,0.98046875,0.65625,0.90625,0.0,0.0,0.0,0.0
1664547807320,-0.16796875,-0.22753906,0.9707031,0.84375,0.28125,-0.125,0.0,0.0,0.0
1664547807366,-0.15917969,-0.22460938,0.9824219,0.65625,0.34375,-0.1875,0.0,0.0,0.0
1664547807397,-0.15234375,-0.23925781,0.9794922,0.65625,0.21875,-0.3125,0.0,0.0,0.0
1664547807444,-0.16503906,-0.22851562,0.97753906,0.09375,0.03125,-0.25,-32.25,-48.6875,-65.0
1664547807488,-0.16113281,-0.24121094,0.9785156,0.34375,0.34375,-0.375,0.0,0.0,0.0
1664547807520,-0.15722656,-0.23925781,0.9736328,0.40625,0.28125,-0.375,0.0,0.0,0.0
1664547807546,-0.15136719,-0.23535156,0.97753906,0.65625,0.28125,-0.8125,0.0,0.0,0.0
1664547807634,-0.16503906,-0.22460938,0.98046875,0.65625,0.21875,-0.625,0.0,0.0,0.0
1664547807637,-0.16796875,-0.23925781,0.9824219,0.65625,0.21875,-0.75,0.0,0.0,0.0
1664547807669,-0.16699219,-0.234375,0.9921875,0.96875,0.34375,-0.375,0.0,0.0,0.0
1664547807726,-0.15332031,-0.22851562,0.9765625,0.34375,0.40625,-0.625,0.0,0.0,0.0
1664547807761,-0.16699219,-0.24414062,0.9863281,0.65625,0.53125,-0.8125,0.0,0.0,0.0
1664547807801,-0.16308594,-0.23535156,0.9736328,0.40625,0.34375,-0.8125,0.0,0.0,0.0
1664547807859,-0.15527344,-0.23535156,0.9785156,0.84375,0.15625,-0.6875,0.0,0.0,0.0
1664547807880,-0.15917969,-0.23730469,0.984375,0.65625,0.46875,-0.8125,0.0,0.0,0.0
1664547807921,-0.16113281,-0.234375,0.9824219,0.15625,0.78125,-0.625,0.0,0.0,0.0
1664547807978,-0.15820312,-0.23730469,0.9785156,0.53125,0.46875,0.03125,-31.1875,-47.375,-65.75
1664547808005,-0.16503906,-0.22753906,0.9785156,0.34375,0.21875,0.65625,0.0,0.0,0.0
1664547808060,-0.15332031,-0.23144531,0.98046875,0.09375,0.09375,0.53125,0.0,0.0,0.0
1664547808114,-0.16796875,-0.22265625,0.9765625,-0.1875,-0.1875,0.65625,0.0,0.0,0.0
1664547808158,-0.17089844,-0.23925781,0.9707031,-0.25,-0.1875,0.34375,0.0,0.0,0.0
1664547808191,-0.16015625,-0.2548828,0.97753906,0.03125,0.0,-0.1875,0.0,0.0,0.0
1664547808245,-0.15332031,-0.24121094,0.9892578,0.34375,0.09375,-0.25,0.0,0.0,0.0
1664547808278,-0.16015625,-0.23828125,0.97558594,0.96875,0.0,-0.5625,0.0,0.0,0.0
1664547808299,-0.15917969,-0.24316406,0.9794922,1.15625,0.03125,-0.5,0.0,0.0,0.0
1664547808370,-0.15527344,-0.234375,0.9794922,1.3125,0.21875,-0.25,0.0,0.0,0.0
1664547808388,-0.16113281,-0.23730469,0.98046875,1.21875,0.28125,-0.25,0.0,0.0,0.0
1664547808404,-0.16210938,-0.23242188,0.9921875,0.71875,0.40625,-0.3125,0.0,0.0,0.0
1664547808453,-0.15820312,-0.23339844,0.9824219,0.71875,0.65625,-0.125,-31.5,-47.6875,-65.75
1664547808482,-0.16699219,-0.22949219,0.98046875,0.65625,0.28125,-0.1875,0.0,0.0,0.0
1664547808515,-0.1640625,-0.24414062,0.9824219,0.90625,0.28125,-0.3125,0.0,0.0,0.0
1664547808574,-0.16796875,-0.24121094,0.9658203,0.90625,0.28125,-0.5625,0.0,0.0,0.0
1664547808594,-0.15429688,-0.22460938,0.97558594,1.09375,0.34375,-0.4375,0.0,0.0,0.0
1664547808633,-0.16015625,-0.23046875,0.9824219,0.46875,0.46875,-0.125,0.0,0.0,0.0
1664547808689,-0.16699219,-0.2265625,0.9765625,0.28125,0.34375,-0.1875,0.0,0.0,0.0
1664547808728,-0.17578125,-0.23730469,0.9707031,0.40625,0.0,0.0,0.0,0.0,0.0
1664547808745,-0.15625,-0.24316406,0.9765625,0.28125,0.21875,-0.375,0.0,0.0,0.0
1664547808808,-0.15917969,-0.23242188,0.97558594,0.40625,0.15625,-0.4375,0.0,0.0,0.0
1664547808838,-0.16503906,-0.23144531,0.96875,0.84375,0.09375,-0.125,0.0,0.0,0.0
1664547808869,-0.16113281,-0.24414062,0.9794922,0.65625,0.46875,-0.3125,0.0,0.0,0.0
1664547808929,-0.16015625,-0.23144531,0.97558594,1.03125,0.21875,-0.1875,0.0,0.0,0.0
1664547808959,-0.16308594,-0.23046875,0.9902344,1.5625,0.21875,-0.1875,-31.625,-48.25,-64.5625
1664547808989,-0.15332031,-0.22363281,0.9794922,1.625,0.15625,-0.6875,0.0,0.0,0.0
1664547809046,-0.14453125,-0.2109375,0.9951172,0.46875,0.21875,-0.5,0.0,0.0,0.0
1664547809078,-0.16210938,-0.22851562,0.98535156,-0.5,1.375,-0.625,0.0,0.0,0.0
1664547809108,-0.17578125,-0.22851562,0.98046875,-0.3125,0.84375,-1.1875,0.0,0.0,0.0
1664547809170,-0.171875,-0.2421875,0.97265625,-0.25,0.03125,-1.46875,0.0,0.0,0.0
1664547809201,-0.16210938,-0.24804688,0.96972656,0.09375,-0.125,-1.84375,0.0,0.0,0.0
1664547809237,-0.16113281,-0.24316406,1.0019531,0.78125,0.09375,-1.84375,0.0,0.0,0.0
1664547809287,-0.16210938,-0.22949219,0.97265625,0.71875,0.40625,-1.59375,0.0,0.0,0.0
1664547809318,-0.16113281,-0.23828125,0.9824219,1.21875,0.28125,-1.65625,0.0,0.0,0.0
1664547809347,-0.15429688,-0.22949219,0.9892578,1.15625,0.21875,-1.53125,0.0,0.0,0.0
1664547809407,-0.15722656,-0.23242188,0.9824219,1.21875,0.46875,-1.34375,0.0,0.0,0.0
1664547809438,-0.15917969,-0.22851562,0.98535156,0.65625,0.84375,-1.53125,-32.375,-48.25,-64.5625
1664547809469,-0.15625,-0.23046875,0.96972656,0.71875,0.53125,-1.65625,0.0,0.0,0.0
1664547809527,-0.15917969,-0.234375,0.9667969,1.03125,0.53125,-1.84375,0.0,0.0,0.0
1664547809559,-0.15917969,-0.23730469,0.9814453,0.96875,0.34375,-1.96875,0.0,0.0,0.0
1664547809586,-0.15136719,-0.23242188,0.9765625,0.90625,0.46875,-1.90625,0.0,0.0,0.0
1664547809650,-0.16308594,-0.23242188,0.9824219,1.09375,0.28125,-1.59375,0.0,0.0,0.0
1664547809678,-0.15917969,-0.23046875,0.9785156,0.84375,0.21875,-1.46875,0.0,0.0,0.0
1664547809707,-0.16210938,-0.23242188,0.97558594,0.96875,0.21875,-0.875,0.0,0.0,0.0
1664547809771,-0.15332031,-0.22753906,0.97558594,0.78125,0.15625,0.0,0.0,0.0,0.0
1664547809799,-0.16308594,-0.23339844,0.984375,0.65625,0.28125,0.28125,0.0,0.0,0.0
1664547809828,-0.16308594,-0.21484375,0.9667969,0.34375,0.09375,0.78125,0.0,0.0,0.0
1664547809889,-0.171875,-0.20800781,0.9824219,-0.6875,1.8125,1.09375,0.0,0.0,0.0
1664547809920,-0.17285156,-0.21875,0.9921875,-0.75,0.46875,4.875,0.0,0.0,0.0
1664547809948,-0.18359375,-0.23632812,0.9941406,0.15625,0.03125,8.15625,-31.8125,-49.4375,-64.6875
1664547810012,-0.171875,-0.22949219,0.98046875,0.15625,-0.4375,9.375,0.0,0.0,0.0
1664547810040,-0.16113281,-0.22949219,0.96777344,0.0,-1.84375,8.84375,0.0,0.0,0.0
1664547810070,-0.15527344,-0.23339844,0.9951172,0.71875,-2.34375,7.25,0.0,0.0,0.0
1664547810126,-0.14160156,-0.22167969,0.9951172,-0.625,-1.34375,6.03125,0.0,0.0,0.0
1664547810156,-0.15234375,-0.22851562,0.9921875,-1.125,-0.0625,4.1875,0.0,0.0,0.0
1664547810189,-0.15625,-0.24023438,0.96875,-1.1875,0.0,1.875,0.0,0.0,0.0
1664547810264,-0.16210938,-0.25,0.97558594,-0.6875,0.0,-0.125,0.0,0.0,0.0
1664547810276,-0.16113281,-0.2578125,0.9814453,-0.5625,-0.1875,-2.09375,0.0,0.0,0.0
1664547810339,-0.15527344,-0.24121094,0.98828125,0.0,0.09375,-3.25,0.0,0.0,0.0
1664547810369,-0.15722656,-0.23925781,0.984375,0.15625,0.46875,-3.6875,0.0,0.0,0.0
1664547810398,-0.16015625,-0.24511719,0.9824219,0.65625,0.78125,-3.75,0.0,0.0,0.0
1664547810428,-0.1640625,-0.23535156,0.9736328,-0.0625,1.28125,-3.5,-32.375,-47.5,-64.25
1664547810489,-0.16503906,-0.24316406,0.97265625,0.21875,1.15625,-2.09375,0.0,0.0,0.0
1664547810521,-0.15820312,-0.23339844,0.9814453,0.84375,0.21875,-0.6875,0.0,0.0,0.0
1664547810548,-0.16699219,-0.23632812,0.97753906,0.84375,0.15625,0.15625,0.0,0.0,0.0
1664547810607,-0.16015625,-0.234375,0.97753906,0.78125,0.21875,0.53125,0.0,0.0,0.0
1664547810639,-0.15332031,-0.23144531,0.96777344,0.90625,0.28125,0.34375,0.0,0.0,0.0
1664547810668,-0.16015625,-0.24121094,0.9765625,1.09375,0.28125,0.15625,0.0,0.0,0.0
1664547810731,-0.15429688,-0.24316406,0.96972656,0.65625,0.34375,-0.625,0.0,0.0,0.0
1664547810759,-0.16015625,-0.23242188,0.97753906,0.71875,0.78125,-0.9375,0.0,0.0,0.0
1664547810791,-0.15917969,-0.23242188,0.96972656,0.84375,0.84375,-1.125,0.0,0.0,0.0
1664547810848,-0.16015625,-0.23242188,0.9902344,0.90625,1.15625,-1.0,0.0,0.0,0.0
1664547810880,-0.16503906,-0.23925781,0.96972656,1.03125,2.25,-0.8125,0.0,0.0,0.0
1664547810908,-0.16894531,-0.23828125,0.97753906,0.53125,2.0,-0.75,0.0,0.0,0.0
1664547810969,-0.16699219,-0.22363281,0.9863281,0.46875,1.15625,-0.9375,-32.5625,-47.0625,-66.0625
1664547810999,-0.16894531,-0.23632812,0.9892578,0.40625,0.84375,-0.9375,0.0,0.0,0.0
1664547811029,-0.17382812,-0.22949219,0.9785156,0.71875,0.21875,-0.9375,0.0,0.0,0.0
1664547811092,-0.16113281,-0.23632812,0.9765625,0.46875,0.71875,-0.9375,0.0,0.0,0.0
1664547811121,-0.15722656,-0.23144531,0.97265625,1.03125,0.34375,-0.875,0.0,0.0,0.0
1664547811148,-0.16699219,-0.22851562,0.9785156,0.0,0.40625,-1.40625,0.0,0.0,0.0
1664547811209,-0.15527344,-0.23730469,0.98046875,0.46875,0.28125,-1.125,0.0,0.0,0.0
1664547811238,-0.15625,-0.22558594,0.9892578,0.40625,0.53125,-1.0625,0.0,0.0,0.0
1664547811269,-0.16308594,-0.23925781,0.97558594,0.28125,0.40625,-0.9375,0.0,0.0,0.0
1664547811329,-0.15917969,-0.23925781,0.9785156,0.28125,0.40625,-1.0,0.0,0.0,0.0
1664547811361,-0.16992188,-0.23339844,0.9736328,0.65625,0.21875,-1.0625,0.0,0.0,0.0
1664547811393,-0.16015625,-0.23925781,0.9736328,0.71875,-0.1875,-0.875,0.0,0.0,0.0
1664547811448,-0.16113281,-0.23632812,0.9736328,0.71875,0.15625,-0.75,-31.8125,-48.4375,-64.6875
1664547811482,-0.16210938,-0.2421875,0.9580078,0.84375,-0.125,-0.6875,0.0,0.0,0.0
1664547811509,-0.16796875,-0.24414062,0.97265625,0.53125,0.0,-0.5625,0.0,0.0,0.0
1664547811567,-0.16699219,-0.23730469,0.97753906,0.96875,0.15625,-0.4375,0.0,0.0,0.0
1664547811597,-0.16601562,-0.2421875,0.9824219,0.96875,0.03125,-0.375,0.0,0.0,0.0
1664547811626,-0.15527344,-0.23535156,0.9785156,1.3125,0.0,-0.4375,0.0,0.0,0.0
1664547811688,-0.16308594,-0.234375,0.9873047,1.09375,-0.125,-0.4375,0.0,0.0,0.0
1664547811720,-0.15820312,-0.23046875,0.9746094,1.03125,-0.25,-0.375,0.0,0.0,0.0
1664547811750,-0.16113281,-0.23339844,0.98046875,1.03125,-0.1875,-0.4375,0.0,0.0,0.0
1664547811810,-0.15722656,-0.23242188,0.9746094,0.71875,0.0,-0.4375,0.0,0.0,0.0
1664547811840,-0.14746094,-0.23242188,0.9824219,0.65625,0.21875,-0.25,0.0,0.0,0.0
1664547811874,-0.16210938,-0.22558594,0.9707031,0.90625,0.09375,0.0,0.0,0.0,0.0
1664547811932,-0.15917969,-0.23632812,0.98046875,0.96875,0.40625,0.09375,0.0,0.0,0.0
1664547811958,-0.16503906,-0.23046875,0.9794922,1.15625,0.34375,0.21875,-31.375,-46.75,-64.5625
1664547811990,-0.15820312,-0.23535156,0.9658203,1.4375,0.53125,0.65625,0.0,0.0,0.0
1664547812054,-0.1640625,-0.22363281,0.99121094,2.0,0.96875,1.15625,0.0,0.0,0.0
1664547812081,-0.1640625,-0.23242188,0.9951172,1.09375,0.90625,0.40625,0.0,0.0,0.0
1664547812107,-0.16210938,-0.22851562,0.98046875,0.78125,0.71875,-0.1875,0.0,0.0,0.0
1664547812172,-0.16015625,-0.23339844,0.9785156,0.90625,0.53125,0.15625,0.0,0.0,0.0
1664547812199,-0.16894531,-0.23339844,0.9873047,0.84375,0.34375,0.03125,0.0,0.0,0.0
1664547812232,-0.16308594,-0.23730469,0.98535156,0.53125,0.65625,0.0,0.0,0.0,0.0
1664547812292,-0.15527344,-0.23339844,0.98339844,0.34375,0.28125,0.15625,0.0,0.0,0.0
1664547812318,-0.16308594,-0.22851562,0.9785156,0.65625,0.03125,0.46875,0.0,0.0,0.0
1664547812348,-0.16992188,-0.23730469,0.99902344,0.65625,0.15625,0.71875,0.0,0.0,0.0
1664547812410,-0.16503906,-0.22753906,0.9814453,0.65625,0.0,0.96875,0.0,0.0,0.0
1664547812438,-0.17089844,-0.22949219,0.98046875,-0.0625,0.09375,0.65625,-31.1875,-47.6875,-63.625
1664547812468,-0.16992188,-0.22070312,0.9765625,0.59375,-0.125,0.65625,0.0,0.0,0.0
1664547812529,-0.15722656,-0.22753906,0.96972656,0.03125,0.03125,0.53125,0.0,0.0,0.0
1664547812558,-0.15722656,-0.22949219,0.97753906,0.09375,0.28125,0.34375,0.0,0.0,0.0
1664547812621,-0.16113281,-0.23339844,0.96875,0.09375,0.09375,0.09375,0.0,0.0,0.0
1664547812648,-0.16308594,-0.23535156,0.9736328,0.46875,-0.1875,-0.3125,0.0,0.0,0.0
1664547812679,-0.15722656,-0.234375,0.98046875,0.15625,0.0,-0.5625,0.0,0.0,0.0
1664547812710,-0.16210938,-0.23339844,0.9951172,0.53125,0.09375,-0.5625,0.0,0.0,0.0
1664547812768,-0.15039062,-0.234375,0.9863281,0.46875,0.09375,-0.3125,0.0,0.0,0.0
1664547812800,-0.1640625,-0.21484375,0.97753906,0.34375,0.15625,-0.1875,0.0,0.0,0.0
1664547812828,-0.15917969,-0.23144531,0.97558594,0.46875,0.34375,-0.125,0.0,0.0,0.0
1664547812890,-0.16796875,-0.23535156,0.9707031,0.65625,0.21875,-0.125,0.0,0.0,0.0
1664547812921,-0.16015625,-0.23046875,0.9814453,0.40625,0.40625,-0.1875,0.0,0.0,0.0
1664547812949,-0.16992188,-0.22949219,0.9765625,0.65625,0.28125,-0.3125,-31.625,-47.5,-63.5
1664547813010,-0.16113281,-0.22753906,0.98535156,0.71875,0.09375,-0.125,0.0,0.0,0.0
1664547813039,-0.16015625,-0.23339844,0.9980469,0.28125,0.40625,-0.25,0.0,0.0,0.0
1664547813069,-0.15722656,-0.22753906,0.9902344,0.65625,0.09375,-0.125,0.0,0.0,0.0
1664547813127,-0.15625,-0.22949219,0.98535156,0.21875,0.65625,-0.3125,0.0,0.0,0.0
1664547813159,-0.16210938,-0.22949219,0.9716797,0.28125,0.46875,-0.3125,0.0,0.0,0.0
1664547813192,-0.16308594,-0.23339844,0.98046875,0.21875,0.28125,-0.5625,0.0,0.0,0.0
1664547813256,-0.17089844,-0.23046875,0.9794922,0.28125,-0.125,-0.4375,0.0,0.0,0.0
1664547813279,-0.16503906,-0.23046875,0.96191406,0.40625,0.15625,-0.3125,0.0,0.0,0.0
1664547813309,-0.16699219,-0.22851562,0.9873047,0.65625,0.46875,-0.3125,0.0,0.0,0.0
1664547813375,-0.14941406,-0.23535156,0.9814453,0.65625,0.46875,-0.5625,0.0,0.0,0.0
1664547813399,-0.1640625,-0.21972656,0.98339844,0.71875,0.46875,-0.5,0.0,0.0,0.0
1664547813458,-0.17089844,-0.22558594,0.98339844,0.71875,0.40625,-0.8125,-30.3125,-47.1875,-66.1875
1664547813488,-0.16503906,-0.24121094,0.9794922,0.53125,0.65625,-1.0,0.0,0.0,0.0
1664547813518,-0.15527344,-0.234375,0.9765625,0.78125,0.40625,-1.0,0.0,0.0,0.0
1664547813549,-0.16210938,-0.23339844,0.98339844,0.65625,0.40625,-1.0625,0.0,0.0,0.0
1664547813610,-0.15625,-0.23046875,0.97265625,0.84375,0.28125,-0.875,0.0,0.0,0.0
1664547813643,-0.16992188,-0.23242188,0.9863281,0.53125,0.46875,-0.9375,0.0,0.0,0.0
1664547813669,-0.16503906,-0.234375,0.9765625,1.03125,0.34375,-0.75,0.0,0.0,0.0
1664547813731,-0.16210938,-0.22558594,0.98828125,0.65625,0.46875,-0.5625,0.0,0.0,0.0
1664547813763,-0.1640625,-0.22558594,0.9785156,0.78125,0.40625,-0.5625,0.0,0.0,0.0
1664547813787,-0.15625,-0.22753906,0.97753906,0.65625,0.28125,-0.5625,0.0,0.0,0.0
1664547813849,-0.17285156,-0.23242188,0.9814453,0.65625,0.03125,-0.4375,0.0,0.0,0.0
1664547813879,-0.16796875,-0.22949219,0.97558594,0.46875,0.09375,-0.625,0.0,0.0,0.0
1664547813909,-0.16699219,-0.23339844,0.9785156,0.65625,0.09375,-0.5,0.0,0.0,0.0
1664547813971,-0.16210938,-0.22558594,0.9824219,0.71875,0.09375,-0.4375,-31.9375,-47.8125,-64.5625
1664547813997,-0.16308594,-0.22753906,0.98535156,0.40625,0.21875,-0.375,0.0,0.0,0.0
1664547814149,-0.16308594,-0.22949219,0.98339844,0.53125,0.15625,-0.1875,0.0,0.0,0.0
1664547814151,-0.16308594,-0.23339844,0.9824219,0.53125,0.15625,-0.125,0.0,0.0,0.0
1664547814179,-0.15625,-0.23144531,0.9814453,0.65625,0.09375,-0.1875,0.0,0.0,0.0
1664547814194,-0.16796875,-0.23730469,0.98339844,0.34375,0.34375,-0.25,0.0,0.0,0.0
1664547814210,-0.16699219,-0.23925781,0.9736328,0.65625,0.28125,-0.25,0.0,0.0,0.0
1664547814238,-0.1640625,-0.24121094,0.97265625,0.53125,0.53125,-0.1875,0.0,0.0,0.0
1664547814393,-0.16210938,-0.22558594,0.98535156,0.28125,0.53125,-0.375,0.0,0.0,0.0
1664547814395,-0.1640625,-0.22753906,0.96191406,0.34375,0.46875,-0.25,0.0,0.0,0.0
1664547814398,-0.16992188,-0.22167969,0.99902344,0.34375,0.65625,-0.375,0.0,0.0,0.0
1664547814403,-0.17089844,-0.2265625,0.9921875,0.21875,0.34375,-0.375,0.0,0.0,0.0
1664547814452,-0.16503906,-0.23242188,0.9746094,0.34375,0.15625,-0.375,-30.875,-48.5625,-64.875
1664547814478,-0.1640625,-0.22167969,0.96875,0.40625,0.15625,-0.3125,0.0,0.0,0.0
1664547814511,-0.1640625,-0.22558594,0.9765625,0.65625,0.28125,-0.375,0.0,0.0,0.0
1664547814571,-0.15917969,-0.22851562,0.98046875,0.71875,0.40625,-0.1875,0.0,0.0,0.0
1664547814599,-0.16308594,-0.22363281,0.9794922,0.46875,0.34375,-0.1875,0.0,0.0,0.0
1664547814629,-0.16992188,-0.23242188,0.96875,0.65625,0.28125,0.0,0.0,0.0,0.0
1664547814691,-0.16601562,-0.23730469,0.97753906,0.65625,0.28125,-0.125,0.0,0.0,0.0
1664547814720,-0.1640625,-0.23144531,0.984375,0.46875,0.28125,-0.3125,0.0,0.0,0.0
1664547814753,-0.16992188,-0.22558594,0.9814453,0.65625,0.28125,-0.1875,0.0,0.0,0.0
1664547814808,-0.1640625,-0.23339844,0.97265625,0.40625,0.46875,-0.375,0.0,0.0,0.0
1664547814838,-0.15527344,-0.234375,0.9785156,0.46875,0.34375,-0.375,0.0,0.0,0.0
1664547814899,-0.16113281,-0.23046875,0.9824219,0.78125,0.34375,-0.3125,0.0,0.0,0.0
1664547814929,-0.15429688,-0.23144531,0.98339844,0.28125,0.46875,-0.3125,0.0,0.0,0.0
1664547814962,-0.16894531,-0.23144531,0.9746094,0.40625,0.46875,-0.3125,-31.5,-47.0625,-65.4375
1664547814989,-0.16308594,-0.23144531,0.9814453,0.53125,0.09375,-0.25,0.0,0.0,0.0
1664547815049,-0.1640625,-0.22753906,0.9892578,0.40625,0.46875,-0.25,0.0,0.0,0.0
1664547815079,-0.16796875,-0.234375,0.97265625,0.53125,0.28125,-0.1875,0.0,0.0,0.0
1664547815110,-0.15527344,-0.23828125,0.96972656,0.65625,0.21875,-0.3125,0.0,0.0,0.0
1664547815171,-0.15820312,-0.22949219,0.98828125,0.71875,0.03125,-0.1875,0.0,0.0,0.0
1664547815198,-0.16210938,-0.22558594,0.9951172,0.53125,0.28125,-0.25,0.0,0.0,0.0
1664547815228,-0.1640625,-0.23730469,0.9785156,0.65625,0.34375,0.0,0.0,0.0,0.0
1664547815288,-0.16308594,-0.22558594,0.9873047,0.65625,0.40625,-0.1875,0.0,0.0,0.0
1664547815319,-0.1640625,-0.22949219,0.9863281,0.71875,0.40625,0.0,0.0,0.0,0.0
1664547815348,-0.16308594,-0.21972656,0.984375,0.65625,0.28125,-0.1875,0.0,0.0,0.0
1664547815409,-0.16894531,-0.22753906,0.9951172,0.53125,0.34375,-0.3125,0.0,0.0,0.0
1664547815439,-0.15917969,-0.23535156,0.9785156,0.53125,0.15625,-0.25,-32.875,-48.6875,-63.9375
1664547815467,-0.16699219,-0.22558594,0.97558594,0.65625,0.21875,-0.25,0.0,0.0,0.0
1664547815570,-0.16113281,-0.23144531,0.984375,0.46875,0.40625,-0.25,0.0,0.0,0.0
1664547815592,-0.16992188,-0.22949219,0.9863281,0.65625,0.21875,-0.3125,0.0,0.0,0.0
1664547815621,-0.16113281,-0.23339844,0.9824219,0.78125,0.03125,-0.1875,0.0,0.0,0.0
1664547815665,-0.1640625,-0.23046875,0.9873047,0.40625,0.34375,-0.1875,0.0,0.0,0.0
1664547815698,-0.15917969,-0.23046875,0.9814453,0.34375,0.65625,-0.1875,0.0,0.0,0.0
1664547815714,-0.15625,-0.23339844,0.96972656,0.40625,0.40625,-0.4375,0.0,0.0,0.0
1664547815808,-0.16503906,-0.23730469,0.9765625,0.46875,0.28125,-0.25,0.0,0.0,0.0
1664547815843,-0.16503906,-0.2265625,0.97558594,0.46875,0.28125,-0.25,0.0,0.0,0.0
1664547815872,-0.15722656,-0.22753906,0.9902344,0.46875,0.03125,-0.375,0.0,0.0,0.0
1664547815907,-0.16015625,-0.22460938,0.9873047,0.46875,-0.125,-0.375,0.0,0.0,0.0
1664547815925,-0.15917969,-0.23339844,0.9746094,0.53125,0.34375,-0.375,0.0,0.0,0.0
1664547815991,-0.16210938,-0.22851562,0.98046875,0.65625,0.15625,-0.3125,-30.3125,-48.25,-65.625
1664547816032,-0.15429688,-0.23730469,0.98339844,0.40625,0.34375,-0.25,0.0,0.0,0.0
1664547816053,-0.15722656,-0.23828125,0.99316406,0.65625,0.21875,-0.125,0.0,0.0,0.0
1664547816076,-0.16113281,-0.2265625,0.98828125,0.65625,0.28125,-0.125,0.0,0.0,0.0
1664547816126,-0.16015625,-0.234375,0.9707031,0.65625,0.28125,-0.125,0.0,0.0,0.0
1664547816169,-0.15429688,-0.22753906,0.97558594,0.53125,0.28125,-0.375,0.0,0.0,0.0
1664547816204,-0.16308594,-0.23339844,0.9746094,0.65625,0.28125,-0.375,0.0,0.0,0.0
1664547816269,-0.15917969,-0.23242188,0.9716797,0.65625,0.09375,-0.3125,0.0,0.0,0.0
1664547816304,-0.16992188,-0.23144531,0.9785156,0.65625,0.46875,-0.3125,0.0,0.0,0.0
1664547816320,-0.16015625,-0.22363281,0.96972656,0.53125,0.46875,0.0,0.0,0.0,0.0
1664547816377,-0.16015625,-0.22949219,0.9667969,0.71875,0.65625,0.0,0.0,0.0,0.0
1664547816413,-0.16308594,-0.23339844,0.9814453,1.09375,0.71875,0.21875,0.0,0.0,0.0
1664547816455,-0.15917969,-0.22363281,0.9794922,-0.1875,0.21875,-0.625,-32.25,-47.0625,-63.375
1664547816491,-0.15625,-0.22460938,0.9814453,0.65625,0.46875,-0.25,0.0,0.0,0.0
1664547816535,-0.15527344,-0.22167969,0.97753906,0.03125,0.65625,-0.4375,0.0,0.0,0.0
1664547816554,-0.15820312,-0.24121094,0.9814453,0.65625,0.46875,0.0,0.0,0.0,0.0
1664547816609,-0.17089844,-0.22558594,0.9863281,0.28125,0.03125,-0.25,0.0,0.0,0.0
1664547816638,-0.16601562,-0.24023438,0.9941406,0.0,0.34375,-0.875,0.0,0.0,0.0
1664547816667,-0.16503906,-0.22851562,0.9794922,0.59375,-0.1875,-0.25,0.0,0.0,0.0
1664547816738,-0.15722656,-0.234375,0.984375,0.78125,0.09375,-0.625,0.0,0.0,0.0
1664547816760,-0.15332031,-0.23242188,0.9716797,1.375,-0.4375,-0.3125,0.0,0.0,0.0
1664547816787,-0.15625,-0.22949219,0.9863281,0.09375,0.90625,-0.375,0.0,0.0,0.0
1664547816865,-0.17285156,-0.22558594,0.98046875,-0.125,0.78125,-0.625,0.0,0.0,0.0
1664547816901,-0.16992188,-0.2265625,0.9716797,-0.25,0.40625,-0.625,0.0,0.0,0.0
1664547816920,-0.15332031,-0.23242188,0.9746094,1.09375,-0.4375,-0.4375,0.0,0.0,0.0
1664547816967,-0.15917969,-0.24316406,0.9921875,1.15625,-0.625,-0.375,-31.625,-47.1875,-65.125
1664547816997,-0.16894531,-0.23046875,0.97753906,1.28125,-0.25,-0.5625,0.0,0.0,0.0
1664547817059,-0.16210938,-0.23144531,0.9863281,1.09375,0.03125,-1.0625,0.0,0.0,0.0
1664547817125,-0.15429688,-0.22460938,0.9785156,1.21875,0.0,-1.0,0.0,0.0,0.0
1664547817151,-0.14648438,-0.23339844,0.98046875,0.78125,0.21875,-1.25,0.0,0.0,0.0
1664547817196,-0.16601562,-0.22265625,0.9746094,0.65625,0.78125,-0.8125,0.0,0.0,0.0
1664547817223,-0.16308594,-0.2265625,0.98339844,0.40625,0.40625,-0.625,0.0,0.0,0.0
1664547817242,-0.16210938,-0.23242188,0.96777344,-0.125,0.59375,-0.75,0.0,0.0,0.0
1664547817268,-0.16308594,-0.23046875,0.98535156,0.40625,0.28125,-0.3125,0.0,0.0,0.0
1664547817344,-0.16796875,-0.22167969,0.9785156,0.21875,0.21875,0.0,0.0,0.0,0.0
1664547817366,-0.16796875,-0.234375,0.98828125,0.21875,0.15625,0.09375,0.0,0.0,0.0
1664547817411,-0.16308594,-0.23046875,0.9736328,0.09375,0.09375,0.0,0.0,0.0,0.0
1664547817460,-0.1640625,-0.22460938,0.98535156,0.53125,0.03125,0.0,-31.625,-46.75,-64.25
1664547817477,-0.16113281,-0.22851562,0.97558594,0.15625,0.21875,0.0,0.0,0.0,0.0
1664547817511,-0.16210938,-0.23144531,0.9746094,0.53125,0.03125,0.0,0.0,0.0,0.0
1664547817587,-0.17382812,-0.23242188,0.96191406,0.21875,0.21875,-0.375,0.0,0.0,0.0
1664547817607,-0.15722656,-0.22167969,0.9863281,0.46875,0.0,-0.25,0.0,0.0,0.0
1664547817639,-0.15332031,-0.23046875,0.9628906,0.34375,-0.125,-0.125,0.0,0.0,0.0
1664547817695,-0.15917969,-0.23632812,0.9824219,0.65625,0.09375,0.0,0.0,0.0,0.0
1664547817721,-0.16210938,-0.23632812,0.9785156,0.40625,0.53125,-0.3125,0.0,0.0,0.0
1664547817755,-0.16308594,-0.23535156,0.98535156,0.90625,0.03125,0.0,0.0,0.0,0.0
1664547817822,-0.15429688,-0.234375,0.9814453,1.09375,0.03125,0.0,0.0,0.0,0.0
1664547817842,-0.16210938,-0.22851562,0.9873047,1.15625,0.15625,0.03125,0.0,0.0,0.0
1664547817879,-0.16308594,-0.21972656,0.96972656,0.65625,0.34375,-0.1875,0.0,0.0,0.0
1664547817933,-0.16308594,-0.23925781,0.9892578,0.65625,0.71875,-0.25,0.0,0.0,0.0
1664547817976,-0.15429688,-0.23828125,0.98046875,0.15625,0.46875,-0.5,-31.625,-46.4375,-65.625
1664547818000,-0.16210938,-0.22949219,0.9814453,0.34375,0.65625,-0.1875,0.0,0.0,0.0
1664547818050,-0.15820312,-0.22363281,0.9716797,0.34375,0.71875,-0.25,0.0,0.0,0.0
1664547818076,-0.15917969,-0.23242188,0.9794922,0.40625,0.40625,-0.1875,0.0,0.0,0.0
1664547818111,-0.16308594,-0.23339844,0.98535156,0.34375,0.28125,-0.25,0.0,0.0,0.0
1664547818165,-0.15625,-0.22851562,0.9736328,-0.1875,-0.125,0.21875,0.0,0.0,0.0
1664547818196,-0.1484375,-0.23144531,0.9824219,-0.1875,-0.125,0.28125,0.0,0.0,0.0
1664547818231,-0.15234375,-0.22265625,0.9863281,-0.3125,0.15625,0.34375,0.0,0.0,0.0
1664547818286,-0.15820312,-0.23242188,0.99316406,-0.25,0.09375,0.28125,0.0,0.0,0.0
1664547818346,-0.15234375,-0.2421875,0.9814453,0.0,0.03125,0.28125,0.0,0.0,0.0
1664547818368,-0.16113281,-0.23828125,0.9785156,-0.125,-0.0625,0.28125,0.0,0.0,0.0
1664547818408,-0.15527344,-0.22265625,0.97753906,-0.8125,0.15625,0.03125,0.0,0.0,0.0
1664547818440,-0.16015625,-0.23925781,0.9794922,-0.25,0.0,0.0,-30.4375,-48.125,-65.4375
1664547818474,-0.15039062,-0.23828125,0.99121094,-0.0625,-0.3125,0.15625,0.0,0.0,0.0
1664547818536,-0.15625,-0.24414062,0.98339844,-0.125,-0.125,-0.125,0.0,0.0,0.0
1664547818576,-0.1640625,-0.23632812,0.9765625,0.0,0.0,0.0,0.0,0.0,0.0
1664547818627,-0.14941406,-0.23144531,0.9873047,0.65625,-0.5625,0.28125,0.0,0.0,0.0
1664547818648,-0.14160156,-0.23535156,0.9873047,0.34375,-0.125,0.90625,0.0,0.0,0.0
1664547818682,-0.16992188,-0.22753906,0.97265625,-0.25,0.34375,1.03125,0.0,0.0,0.0
1664547818741,-0.17578125,-0.23144531,0.9716797,-0.125,0.09375,1.09375,0.0,0.0,0.0
1664547818768,-0.16992188,-0.23730469,0.9736328,-0.0625,-0.875,0.96875,0.0,0.0,0.0
1664547818810,-0.16015625,-0.24121094,0.97265625,0.15625,-1.40625,0.96875,0.0,0.0,0.0
1664547818895,-0.16894531,-0.22753906,0.99121094,0.46875,-1.25,0.96875,0.0,0.0,0.0
1664547818916,-0.15917969,-0.21484375,1.0097656,-0.6875,0.03125,0.03125,0.0,0.0,0.0
1664547818939,-0.16210938,-0.22851562,0.96777344,-1.25,-1.0,1.625,0.0,0.0,0.0
1664547818989,-0.16503906,-0.22851562,0.96191406,-0.6875,-2.53125,3.28125,-31.9375,-46.75,-65.125
1664547819005,-0.16601562,-0.22363281,0.9824219,-0.125,-3.5,3.90625,0.0,0.0,0.0
1664547819042,-0.14257812,-0.234375,0.98535156,-0.8125,-2.46875,4.0,0.0,0.0,0.0
1664547819108,-0.13964844,-0.2265625,0.98046875,-1.96875,-1.125,5.125,0.0,0.0,0.0
1664547819143,-0.14746094,-0.234375,0.9863281,-2.03125,-0.375,6.625,0.0,0.0,0.0
1664547819178,-0.14746094,-0.23925781,0.97558594,-1.71875,0.15625,7.6875,0.0,0.0,0.0
1664547819224,-0.15625,-0.23730469,0.98046875,-1.1875,-0.4375,8.28125,0.0,0.0,0.0
1664547819246,-0.15625,-0.22949219,0.9667969,-1.0625,-1.3125,7.8125,0.0,0.0,0.0
1664547819288,-0.15234375,-0.2421875,0.9794922,0.09375,-1.1875,7.90625,0.0,0.0,0.0
1664547819337,-0.15332031,-0.24121094,0.9794922,-0.625,-1.0625,7.5,0.0,0.0,0.0
1664547819376,-0.16113281,-0.2421875,0.98828125,-0.8125,-0.625,6.6875,0.0,0.0,0.0
1664547819419,-0.16308594,-0.22558594,0.9824219,-1.1875,-0.8125,6.40625,0.0,0.0,0.0
1664547819482,-0.16015625,-0.22753906,0.984375,-1.40625,-1.125,5.84375,-30.625,-48.875,-65.125
1664547819502,-0.16015625,-0.22460938,0.9863281,-2.21875,-2.03125,5.96875,0.0,0.0,0.0
1664547819533,-0.15820312,-0.22949219,0.9863281,-1.84375,-2.28125,6.09375,0.0,0.0,0.0
1664547819584,-0.15527344,-0.23632812,0.9902344,-2.34375,-2.59375,6.8125,0.0,0.0,0.0
1664547819625,-0.15917969,-0.23144531,0.9892578,-1.53125,-1.71875,7.125,0.0,0.0,0.0
1664547819669,-0.1640625,-0.24511719,0.98535156,-1.84375,-2.28125,7.8125,0.0,0.0,0.0
1664547819733,-0.15527344,-0.24121094,0.9873047,-1.0,-2.21875,8.15625,0.0,0.0,0.0
1664547819756,-0.15917969,-0.25390625,0.9765625,-1.25,-1.71875,7.5625,0.0,0.0,0.0
1664547819766,-0.14941406,-0.24414062,0.9892578,-0.9375,-2.15625,6.9375,0.0,0.0,0.0
1664547819828,-0.14453125,-0.23144531,0.98828125,-0.4375,-1.40625,5.96875,0.0,0.0,0.0
1664547819861,-0.14746094,-0.24023438,0.9785156,-1.0625,-1.0625,4.6875,0.0,0.0,0.0
1664547819881,-0.14355469,-0.2578125,0.98046875,-1.0,-0.5,3.46875,0.0,0.0,0.0
1664547819936,-0.14648438,-0.25,0.98046875,-0.75,-0.5,2.375,0.0,0.0,0.0
1664547819999,-0.15917969,-0.25,0.9658203,-0.8125,-0.1875,1.5625,-29.6875,-49.1875,-64.6875
1664547820024,-0.14941406,-0.24414062,0.9785156,-0.0625,-0.125,0.40625,0.0,0.0,0.0
1664547820087,-0.15722656,-0.25,0.9628906,0.21875,-0.1875,-0.0625,0.0,0.0,0.0
1664547820113,-0.15917969,-0.2421875,0.97558594,0.15625,0.34375,-1.25,0.0,0.0,0.0
1664547820137,-0.15527344,-0.24902344,0.98339844,0.21875,0.46875,-1.96875,0.0,0.0,0.0
1664547820207,-0.1484375,-0.23339844,0.9794922,-0.125,0.96875,-2.59375,0.0,0.0,0.0
1664547820208,-0.15722656,-0.23925781,0.9873047,0.46875,0.59375,-2.875,0.0,0.0,0.0
1664547820252,-0.15625,-0.25097656,0.96875,0.46875,0.84375,-2.75,0.0,0.0,0.0
1664547820316,-0.15722656,-0.25,0.96972656,0.15625,1.03125,-3.0,0.0,0.0,0.0
1664547820351,-0.16113281,-0.2421875,0.9765625,1.21875,0.53125,-3.3125,0.0,0.0,0.0
1664547820371,-0.15332031,-0.234375,0.9794922,0.84375,1.09375,-3.4375,0.0,0.0,0.0
1664547820416,-0.16601562,-0.22949219,0.9814453,1.375,0.71875,-4.15625,0.0,0.0,0.0
1664547820461,-0.15429688,-0.24609375,0.98828125,0.59375,0.65625,-4.03125,-29.5625,-48.875,-65.875
1664547820518,-0.14648438,-0.25,0.9707031,2.5625,0.09375,-4.96875,0.0,0.0,0.0
1664547820540,-0.15820312,-0.23730469,0.9814453,0.46875,1.875,-6.4375,0.0,0.0,0.0
1664547820570,-0.15332031,-0.24414062,0.9794922,2.375,1.21875,-7.09375,0.0,0.0,0.0
1664547820602,-0.15917969,-0.24023438,0.9873047,1.875,0.84375,-7.09375,0.0,0.0,0.0
1664547820667,-0.15429688,-0.23046875,0.9658203,1.625,1.03125,-8.0625,0.0,0.0,0.0
1664547820691,-0.13769531,-0.234375,0.9902344,2.375,1.21875,-7.9375,0.0,0.0,0.0
1664547820727,-0.15332031,-0.22460938,0.9785156,2.1875,1.6875,-7.71875,0.0,0.0,0.0
1664547820791,-0.15625,-0.22949219,0.9785156,0.34375,2.3125,-8.3125,0.0,0.0,0.0
1664547820814,-0.16992188,-0.23730469,0.99121094,1.5625,0.90625,-7.875,0.0,0.0,0.0
1664547820835,-0.16699219,-0.23730469,0.9824219,1.03125,1.15625,-7.15625,0.0,0.0,0.0
1664547820913,-0.17089844,-0.23535156,0.9765625,1.3125,0.84375,-6.1875,0.0,0.0,0.0
1664547820953,-0.14746094,-0.22558594,0.9824219,2.125,0.0,-5.09375,0.0,0.0,0.0
1664547820987,-0.16210938,-0.21972656,0.9902344,1.09375,0.96875,-4.15625,-31.5,-48.4375,-64.375
1664547821041,-0.15234375,-0.22851562,0.99902344,1.15625,0.21875,-3.5,0.0,0.0,0.0
1664547821056,-0.15429688,-0.21289062,0.98828125,1.03125,0.71875,-2.21875,0.0,0.0,0.0
1664547821096,-0.15429688,-0.21386719,0.97753906,0.84375,0.28125,-1.125,0.0,0.0,0.0
1664547821164,-0.15625,-0.22558594,0.9736328,0.03125,0.03125,-0.5625,0.0,0.0,0.0
1664547821200,-0.15625,-0.23535156,0.9863281,0.34375,0.28125,-0.25,0.0,0.0,0.0
1664547821225,-0.15722656,-0.22363281,0.96972656,-0.375,0.15625,-0.0625,0.0,0.0,0.0
1664547821304,-0.16308594,-0.22363281,0.9892578,-0.0625,-0.25,-0.25,0.0,0.0,0.0
1664547821373,-0.15625,-0.24609375,0.9746094,-0.125,-0.0625,-0.125,0.0,0.0,0.0
1664547821426,-0.15527344,-0.23535156,0.9716797,0.28125,0.40625,-0.1875,0.0,0.0,0.0
1664547821500,-0.16503906,-0.21191406,0.9814453,0.34375,0.0,0.03125,0.0,0.0,0.0
1664547821518,-0.15136719,-0.20117188,0.9814453,-0.9375,0.0,-0.0625,0.0,0.0,0.0
1664547821540,-0.14160156,-0.20703125,0.9892578,-1.78125,0.0,0.65625,-31.375,-47.5,-65.125
1664547821598,-0.15820312,-0.21875,0.9824219,-2.8125,0.34375,0.84375,0.0,0.0,0.0
1664547821629,-0.16308594,-0.25878906,0.98828125,-2.03125,0.21875,0.71875,0.0,0.0,0.0
1664547821647,-0.17089844,-0.2626953,0.98339844,-1.59375,0.09375,1.375,0.0,0.0,0.0
1664547821693,-0.15527344,-0.2529297,0.9794922,-0.5625,-0.0625,1.625,0.0,0.0,0.0
1664547821724,-0.15136719,-0.24414062,0.9794922,1.03125,0.0,1.6875,0.0,0.0,0.0
1664547821774,-0.15332031,-0.23535156,0.96191406,0.40625,-0.125,1.75,0.0,0.0,0.0
1664547821828,-0.15917969,-0.22070312,0.9736328,0.34375,-0.3125,1.09375,0.0,0.0,0.0
1664547821849,-0.15625,-0.22753906,0.98828125,0.0,-0.4375,0.84375,0.0,0.0,0.0
1664547821873,-0.16015625,-0.22558594,0.9824219,-0.25,-0.375,0.90625,0.0,0.0,0.0
1664547821926,-0.14648438,-0.22753906,0.9902344,-0.5625,-0.375,0.21875,0.0,0.0,0.0
1664547821976,-0.15136719,-0.23828125,0.984375,-1.0,-0.125,-0.4375,0.0,0.0,0.0
1664547821999,-0.1640625,-0.23828125,0.9863281,-0.75,0.53125,-0.8125,0.0,0.0,0.0
1664547822074,-0.16113281,-0.23535156,0.9921875,-0.5625,0.46875,-0.375,-30.0,-48.125,-66.375
1664547822114,-0.15722656,-0.23535156,0.98535156,-0.25,-0.125,-0.1875,0.0,0.0,0.0
1664547822137,-0.16210938,-0.24023438,0.9863281,0.34375,-0.3125,0.03125,0.0,0.0,0.0
1664547822249,-0.15234375,-0.21972656,0.9892578,-0.125,-0.3125,0.65625,0.0,0.0,0.0
1664547822255,-0.15722656,-0.22851562,0.98828125,0.15625,-0.125,1.03125,0.0,0.0,0.0
1664547822293,-0.14746094,-0.234375,0.9707031,0.03125,-0.3125,1.09375,0.0,0.0,0.0
1664547822343,-0.16015625,-0.2548828,0.9892578,0.09375,-0.5,0.78125,0.0,0.0,0.0
1664547822365,-0.15527344,-0.24023438,0.9746094,0.03125,-0.125,0.03125,0.0,0.0,0.0
1664547822395,-0.15625,-0.23925781,0.984375,0.53125,0.15625,-0.125,0.0,0.0,0.0
1664547822453,-0.15234375,-0.23828125,0.97558594,0.46875,0.21875,-0.625,0.0,0.0,0.0
1664547822474,-0.15234375,-0.24316406,0.9765625,0.65625,0.34375,-0.9375,0.0,0.0,0.0
1664547822509,-0.1484375,-0.23535156,0.9921875,0.34375,0.53125,-1.34375,0.0,0.0,0.0
1664547822604,-0.16210938,-0.22460938,0.9863281,0.15625,0.84375,-1.40625,-30.3125,-48.5625,-64.875
1664547822609,-0.16015625,-0.23242188,0.99609375,0.03125,0.53125,-1.0,0.0,0.0,0.0
1664547822639,-0.171875,-0.24121094,0.96875,-0.1875,0.34375,-1.1875,0.0,0.0,0.0
1664547822688,-0.15332031,-0.22851562,0.96191406,0.40625,0.09375,-1.0,0.0,0.0,0.0
1664547822719,-0.15429688,-0.23046875,0.97753906,-0.1875,0.53125,-0.3125,0.0,0.0,0.0
1664547822757,-0.16210938,-0.234375,0.9824219,-0.1875,0.84375,-0.5625,0.0,0.0,0.0
1664547822823,-0.15917969,-0.22753906,0.96875,-0.875,1.21875,-0.8125,0.0,0.0,0.0
1664547822857,-0.16210938,-0.23242188,0.98046875,-0.1875,-0.0625,-0.8125,0.0,0.0,0.0
1664547822881,-0.14941406,-0.23730469,0.9707031,0.0,0.03125,-0.9375,0.0,0.0,0.0
1664547822957,-0.15234375,-0.23925781,0.9941406,0.0,0.40625,-1.40625,0.0,0.0,0.0
1664547822999,-0.16015625,-0.24121094,0.9736328,-0.125,0.84375,-1.59375,0.0,0.0,0.0
1664547823028,-0.16796875,-0.23242188,0.96875,0.0,0.71875,-1.0625,0.0,0.0,0.0
1664547823075,-0.15429688,-0.23339844,0.9736328,0.84375,-1.0625,-0.125,0.0,0.0,0.0
1664547823097,-0.15527344,-0.2421875,0.96777344,-0.0625,0.0,-0.4375,-31.375,-47.5,-65.125
1664547823119,-0.15039062,-0.23144531,0.96875,0.21875,0.09375,-0.0625,0.0,0.0,0.0
1664547823169,-0.15234375,-0.23828125,0.98535156,0.28125,-0.125,0.34375,0.0,0.0,0.0
1664547823192,-0.15820312,-0.23535156,0.97265625,0.0,0.40625,-0.625,0.0,0.0,0.0
1664547823210,-0.15527344,-0.23925781,0.96484375,-0.5625,0.84375,-0.625,0.0,0.0,0.0
1664547823246,-0.171875,-0.23046875,0.9716797,0.59375,-0.6875,0.21875,0.0,0.0,0.0
1664547823268,-0.15234375,-0.23242188,0.98046875,1.5,-1.59375,0.71875,0.0,0.0,0.0
1664547823287,-0.14648438,-0.23925781,0.984375,-0.375,0.09375,0.46875,0.0,0.0,0.0
1664547823330,-0.16796875,-0.25,0.9814453,0.0,0.78125,0.84375,0.0,0.0,0.0
1664547823363,-0.17089844,-0.234375,0.9824219,0.34375,-0.5625,1.375,0.0,0.0,0.0
1664547823395,-0.15332031,-0.21777344,0.9765625,0.0,-0.75,1.03125,0.0,0.0,0.0
1664547823427,-0.14453125,-0.21972656,0.9921875,-0.9375,-0.375,0.96875,0.0,0.0,0.0
1664547823467,-0.15625,-0.23144531,0.97558594,-1.34375,-0.4375,1.03125,-30.875,-47.5,-65.125
1664547823497,-0.15917969,-0.25585938,0.984375,-0.875,-0.375,0.46875,0.0,0.0,0.0
1664547823602,-0.16796875,-0.25390625,0.9667969,-0.6875,0.0,0.34375,0.0,0.0,0.0
1664547823642,-0.15917969,-0.25195312,0.9785156,0.03125,0.15625,0.96875,0.0,0.0,0.0
1664547823666,-0.15820312,-0.23730469,0.9628906,0.15625,-0.4375,1.03125,0.0,0.0,0.0
1664547823719,-0.15527344,-0.22753906,0.98339844,-0.125,-0.5625,1.03125,0.0,0.0,0.0
1664547823741,-0.15722656,-0.23730469,0.9814453,-0.5,-1.34375,0.71875,0.0,0.0,0.0
1664547823787,-0.15917969,-0.23925781,0.98046875,-0.8125,-0.6875,0.34375,0.0,0.0,0.0
1664547823845,-0.16113281,-0.24804688,0.98828125,-0.75,-0.375,0.03125,0.0,0.0,0.0
1664547823881,-0.16699219,-0.24414062,0.9667969,-0.3125,-0.1875,0.03125,0.0,0.0,0.0
1664547823913,-0.15429688,-0.22851562,0.99316406,0.59375,-0.8125,0.53125,0.0,0.0,0.0
1664547823960,-0.14648438,-0.23339844,0.9765625,0.84375,-0.9375,0.21875,0.0,0.0,0.0
1664547823981,-0.15039062,-0.24414062,1.0068359,0.71875,-0.375,-0.25,0.0,0.0,0.0
1664547824011,-0.14550781,-0.24414062,0.9785156,0.59375,0.46875,-0.5625,-30.75,-48.125,-64.6875
1664547824036,-0.15625,-0.24023438,0.96875,0.84375,0.40625,-0.75,0.0,0.0,0.0
1664547824058,-0.15332031,-0.23242188,0.9814453,0.46875,0.34375,-0.875,0.0,0.0,0.0
1664547824083,-0.15527344,-0.23535156,0.98828125,0.59375,-0.3125,-0.9375,0.0,0.0,0.0
1664547824136,-0.15234375,-0.23144531,0.96777344,0.46875,0.09375,-1.0625,0.0,0.0,0.0
1664547824208,-0.16113281,-0.23925781,0.99121094,0.15625,0.15625,-0.75,0.0,0.0,0.0
1664547824237,-0.16015625,-0.22460938,0.9716797,0.0,0.46875,-0.75,0.0,0.0,0.0
1664547824276,-0.16113281,-0.22753906,0.9814453,0.34375,0.34375,-0.625,0.0,0.0,0.0
1664547824300,-0.16113281,-0.24511719,0.9765625,0.09375,0.15625,-0.8125,0.0,0.0,0.0
1664547824333,-0.15625,-0.25097656,0.9716797,0.15625,0.65625,-1.125,0.0,0.0,0.0
1664547824388,-0.15429688,-0.23828125,0.97265625,0.59375,0.46875,-0.875,0.0,0.0,0.0
1664547824417,-0.14941406,-0.23535156,0.9824219,0.34375,0.03125,-0.875,0.0,0.0,0.0
1664547824447,-0.15332031,-0.23339844,0.9794922,0.78125,0.40625,-1.1875,-31.8125,-48.125,-65.4375
1664547824505,-0.15722656,-0.24023438,0.9765625,0.28125,0.71875,-1.3125,0.0,0.0,0.0
1664547824531,-0.16015625,-0.22949219,1.0117188,0.34375,0.46875,-1.3125,0.0,0.0,0.0
1664547824556,-0.16308594,-0.23144531,0.9736328,0.21875,0.28125,-0.9375,0.0,0.0,0.0
1664547824617,-0.15722656,-0.22265625,0.9873047,-0.1875,0.09375,-0.625,0.0,0.0,0.0
1664547824656,-0.17382812,-0.23925781,0.96777344,-0.125,-0.125,-0.625,0.0,0.0,0.0
1664547824677,-0.15527344,-0.23925781,0.97265625,-0.3125,0.0,-0.6875,0.0,0.0,0.0
1664547824798,-0.16015625,-0.23925781,0.98535156,0.34375,-0.0625,-0.375,0.0,0.0,0.0
1664547824799,-0.15429688,-0.23339844,0.98535156,0.0,0.21875,-0.6875,0.0,0.0,0.0
1664547824815,-0.14941406,-0.23828125,0.9716797,0.28125,-0.625,-0.5,0.0,0.0,0.0
1664547824865,-0.15722656,-0.23242188,0.9707031,-0.0625,-0.625,-0.9375,0.0,0.0,0.0
1664547824916,-0.16308594,-0.22753906,0.9736328,-0.3125,-0.5,-0.6875,0.0,0.0,0.0
1664547824944,-0.15332031,-0.23046875,0.9873047,-0.5,-0.4375,-0.5625,0.0,0.0,0.0
1664547825010,-0.15527344,-0.24121094,0.96972656,-0.4375,0.15625,-0.6875,-31.1875,-47.0625,-65.75
1664547825042,-0.15917969,-0.24414062,0.96875,0.0,0.03125,-0.625,0.0,0.0,0.0
1664547825064,-0.16503906,-0.23535156,0.9863281,0.46875,-0.1875,-0.25,0.0,0.0,0.0
1664547825110,-0.16113281,-0.23828125,0.97753906,0.28125,-0.1875,-0.5625,0.0,0.0,0.0
1664547825126,-0.15234375,-0.21972656,0.99316406,-0.0625,0.15625,-0.5,0.0,0.0,0.0
1664547825176,-0.15136719,-0.23828125,0.9580078,0.0,0.0,-0.5,0.0,0.0,0.0
1664547825219,-0.1484375,-0.23828125,0.984375,0.0,0.09375,-0.625,0.0,0.0,0.0
1664547825259,-0.15527344,-0.24316406,0.98828125,-0.1875,0.21875,-0.6875,0.0,0.0,0.0
1664547825285,-0.15527344,-0.24414062,0.9814453,0.21875,0.09375,-0.8125,0.0,0.0,0.0
1664547825338,-0.15429688,-0.23730469,0.98046875,-0.0625,0.28125,-0.9375,0.0,0.0,0.0
1664547825368,-0.15527344,-0.22851562,0.96777344,0.15625,0.28125,-0.9375,0.0,0.0,0.0
1664547825410,-0.15136719,-0.23339844,0.98828125,0.0,0.21875,-0.625,0.0,0.0,0.0
1664547825466,-0.15722656,-0.23046875,0.98339844,-0.0625,-0.0625,-0.3125,-31.375,-47.1875,-65.125
1664547825486,-0.15820312,-0.22949219,0.9863281,-0.4375,-0.25,-0.25,0.0,0.0,0.0
1664547825527,-0.15527344,-0.23046875,0.9667969,0.15625,-0.1875,0.15625,0.0,0.0,0.0
1664547825585,-0.15429688,-0.234375,0.98046875,0.09375,-0.125,0.34375,0.0,0.0,0.0
1664547825606,-0.14746094,-0.24316406,0.9892578,0.34375,0.28125,0.65625,0.0,0.0,0.0
1664547825637,-0.15429688,-0.23925781,0.96484375,0.53125,-0.0625,0.40625,0.0,0.0,0.0
1664547825703,-0.15527344,-0.22851562,0.9921875,0.71875,-0.0625,0.46875,0.0,0.0,0.0
1664547825742,-0.16015625,-0.23144531,0.98535156,0.84375,-0.125,0.65625,0.0,0.0,0.0
1664547825772,-0.14648438,-0.23339844,0.9785156,0.53125,0.0,0.28125,0.0,0.0,0.0
1664547825832,-0.15527344,-0.24023438,0.9814453,0.65625,0.09375,0.40625,0.0,0.0,0.0
1664547825854,-0.15136719,-0.23046875,0.9746094,0.78125,-0.125,0.34375,0.0,0.0,0.0
1664547825897,-0.15527344,-0.22949219,0.98535156,0.21875,0.21875,0.28125,0.0,0.0,0.0
1664547825946,-0.15429688,-0.22070312,0.9873047,0.53125,0.09375,0.34375,0.0,0.0,0.0
1664547825971,-0.15136719,-0.22851562,0.9824219,0.03125,0.21875,0.40625,-30.875,-47.5,-64.5625
1664547826033,-0.16699219,-0.22949219,0.9814453,0.0,0.09375,0.28125,0.0,0.0,0.0
1664547826096,-0.15625,-0.23632812,0.9814453,0.03125,0.09375,0.21875,0.0,0.0,0.0
1664547826127,-0.15527344,-0.22949219,0.9785156,0.03125,-0.25,0.28125,0.0,0.0,0.0
1664547826145,-0.16015625,-0.23046875,0.97753906,-0.0625,-0.25,0.15625,0.0,0.0,0.0
1664547826195,-0.14941406,-0.24121094,0.98339844,0.0,0.09375,0.34375,0.0,0.0,0.0
1664547826211,-0.15722656,-0.22265625,0.984375,0.40625,0.0,0.46875,0.0,0.0,0.0
1664547826238,-0.15234375,-0.23828125,0.98046875,0.21875,0.0,0.59375,0.0,0.0,0.0
1664547826309,-0.1484375,-0.22851562,0.9736328,0.21875,0.03125,0.28125,0.0,0.0,0.0
1664547826353,-0.15625,-0.234375,0.9736328,0.0,0.09375,0.0,0.0,0.0,0.0
1664547826365,-0.15234375,-0.23046875,0.9921875,0.03125,0.0,0.0,0.0,0.0,0.0
1664547826437,-0.16601562,-0.23730469,0.96875,-0.125,-0.1875,-0.125,0.0,0.0,0.0
1664547826462,-0.15722656,-0.23339844,0.984375,0.09375,-0.125,0.03125,-30.0,-48.4375,-63.375
1664547826478,-0.15625,-0.24121094,0.97753906,-0.375,-0.0625,-0.0625,0.0,0.0,0.0
1664547826553,-0.15625,-0.23242188,0.9658203,0.09375,0.21875,-0.125,0.0,0.0,0.0
1664547826577,-0.15722656,-0.23535156,0.9873047,-0.3125,0.21875,0.0,0.0,0.0,0.0
1664547826605,-0.15625,-0.23339844,0.97558594,-0.3125,-0.125,-0.125,0.0,0.0,0.0
1664547826662,-0.16503906,-0.24023438,0.9873047,-0.25,0.09375,-0.125,0.0,0.0,0.0
1664547826698,-0.14550781,-0.23242188,0.9794922,0.15625,-0.4375,0.0,0.0,0.0,0.0
1664547826718,-0.15722656,-0.23144531,0.98339844,-0.125,0.03125,-0.3125,0.0,0.0,0.0
1664547826781,-0.14941406,-0.23242188,0.9824219,0.0,0.03125,-0.375,0.0,0.0,0.0
1664547826808,-0.15429688,-0.23925781,0.9736328,0.0,0.34375,-0.3125,0.0,0.0,0.0
1664547826849,-0.14648438,-0.23339844,0.9814453,-0.0625,0.28125,0.21875,0.0,0.0,0.0
1664547826911,-0.16113281,-0.23144531,0.9785156,0.53125,-0.0625,1.09375,0.0,0.0,0.0
1664547826946,-0.15917969,-0.23632812,0.96777344,0.21875,0.0,1.15625,0.0,0.0,0.0
1664547826972,-0.1484375,-0.21679688,0.99316406,-0.0625,-0.5,1.09375,-30.75,-47.375,-65.75
1664547827052,-0.16015625,-0.22460938,0.984375,-1.125,0.40625,1.03125,0.0,0.0,0.0
1664547827054,-0.16503906,-0.24023438,0.9873047,-0.5625,-0.4375,0.34375,0.0,0.0,0.0
1664547827085,-0.15429688,-0.25195312,0.9667969,-0.375,-0.5,-0.625,0.0,0.0,0.0
1664547827144,-0.15136719,-0.23535156,0.9824219,-0.0625,0.03125,-0.8125,0.0,0.0,0.0
1664547827168,-0.15234375,-0.22753906,0.96875,-0.1875,0.34375,-0.75,0.0,0.0,0.0
1664547827199,-0.1484375,-0.21582031,0.97753906,-0.0625,-0.0625,0.0,0.0,0.0,0.0
1664547827263,-0.15429688,-0.234375,0.984375,-0.4375,0.09375,0.09375,0.0,0.0,0.0
1664547827294,-0.16503906,-0.22949219,0.9785156,-0.3125,-0.25,0.34375,0.0,0.0,0.0
1664547827330,-0.16699219,-0.23535156,0.9746094,-0.25,-0.1875,0.15625,0.0,0.0,0.0
1664547827391,-0.14648438,-0.23925781,0.9736328,-0.1875,-0.1875,0.21875,0.0,0.0,0.0
1664547827412,-0.15820312,-0.234375,0.9746094,-0.125,-0.0625,0.21875,0.0,0.0,0.0
1664547827448,-0.15820312,-0.23242188,0.9794922,0.03125,-0.1875,0.28125,-30.4375,-46.625,-65.0
1664547827603,-0.15332031,-0.23730469,0.98046875,0.09375,0.03125,0.21875,0.0,0.0,0.0
1664547827604,-0.15527344,-0.23828125,0.9892578,0.21875,0.0,0.21875,0.0,0.0,0.0
1664547827606,-0.16210938,-0.23730469,0.9863281,0.03125,0.09375,0.21875,0.0,0.0,0.0
1664547827674,-0.15625,-0.23535156,0.99316406,0.0,0.09375,-0.125,0.0,0.0,0.0
1664547827675,-0.16113281,-0.23046875,0.96875,0.0,-0.0625,-0.0625,0.0,0.0,0.0
1664547827698,-0.16113281,-0.22851562,0.984375,0.15625,-0.1875,0.0,0.0,0.0,0.0
1664547827846,-0.14941406,-0.23730469,0.9746094,0.0,0.09375,0.0,0.0,0.0,0.0
1664547827849,-0.15820312,-0.2421875,0.97265625,-0.0625,0.03125,0.0,0.0,0.0,0.0
1664547827850,-0.15136719,-0.23339844,0.98828125,-0.0625,-0.0625,-0.0625,0.0,0.0,0.0
1664547827863,-0.16210938,-0.23925781,0.98535156,0.09375,-0.0625,0.03125,0.0,0.0,0.0
1664547827896,-0.16210938,-0.23632812,0.97265625,0.0,0.09375,-0.125,0.0,0.0,0.0
1664547827938,-0.15527344,-0.2265625,0.98535156,0.03125,-0.1875,0.09375,0.0,0.0,0.0
1664547828067,-0.15527344,-0.2265625,0.9814453,-0.4375,-0.0625,0.0,-30.0,-48.125,-66.0625
1664547828068,-0.15917969,-0.23925781,0.98535156,-0.25,-0.125,-0.0625,0.0,0.0,0.0
1664547828071,-0.15722656,-0.234375,0.9736328,-0.0625,-0.1875,-0.125,0.0,0.0,0.0
1664547828103,-0.15234375,-0.22558594,0.99316406,0.0,0.0,-0.1875,0.0,0.0,0.0
1664547828133,-0.1484375,-0.23925781,0.96777344,0.21875,-0.25,0.28125,0.0,0.0,0.0
1664547828156,-0.1484375,-0.23828125,0.97558594,0.15625,-0.125,0.28125,0.0,0.0,0.0
1664547828219,-0.16113281,-0.23242188,0.9863281,0.0,-0.0625,0.28125,0.0,0.0,0.0
1664547828257,-0.15234375,-0.23046875,0.9892578,-0.0625,0.03125,0.0,0.0,0.0,0.0
1664547828294,-0.16308594,-0.23535156,0.9746094,-0.1875,0.03125,0.0,0.0,0.0,0.0
1664547828338,-0.16601562,-0.23925781,0.9824219,-0.0625,-0.0625,-0.125,0.0,0.0,0.0
1664547828372,-0.15722656,-0.2421875,0.97753906,-0.0625,-0.1875,0.0,0.0,0.0,0.0
1664547828411,-0.16015625,-0.23828125,0.9941406,0.09375,-0.25,0.09375,0.0,0.0,0.0
1664547828566,-0.15429688,-0.22558594,0.96875,0.0,-0.125,0.0,-29.875,-48.5625,-63.8125
1664547828570,-0.15234375,-0.23242188,0.9785156,0.0,0.09375,-0.0625,0.0,0.0,0.0
1664547828574,-0.1484375,-0.22753906,0.97558594,0.0,-0.125,-0.0625,0.0,0.0,0.0
1664547828614,-0.15136719,-0.22949219,0.99121094,0.03125,0.09375,0.0,0.0,0.0,0.0
1664547828631,-0.15527344,-0.23242188,0.9873047,-0.25,0.34375,0.0,0.0,0.0,0.0
1664547828661,-0.15234375,-0.23339844,0.97265625,-0.125,-0.25,0.03125,0.0,0.0,0.0
1664547828724,-0.16308594,-0.22949219,0.97753906,-0.0625,-0.0625,-0.0625,0.0,0.0,0.0
1664547828749,-0.15527344,-0.23242188,0.9746094,-0.375,0.53125,0.28125,0.0,0.0,0.0
1664547828790,-0.16308594,-0.23144531,0.98046875,-0.6875,0.65625,0.15625,0.0,0.0,0.0
1664547828844,-0.15917969,-0.234375,0.9765625,-0.0625,0.40625,0.15625,0.0,0.0,0.0
1664547828875,-0.15625,-0.22753906,0.984375,-0.3125,0.90625,0.28125,0.0,0.0,0.0
1664547828893,-0.15429688,-0.22558594,0.9746094,-0.25,0.46875,0.15625,0.0,0.0,0.0
1664547828942,-0.16503906,-0.23242188,0.96875,0.0,0.03125,0.0,0.0,0.0,0.0
1664547828967,-0.15722656,-0.234375,0.97753906,-0.25,-0.25,-0.1875,-31.5,-48.6875,-65.75
1664547829012,-0.15820312,-0.24121094,0.97753906,0.09375,-0.25,-0.125,0.0,0.0,0.0
1664547829099,-0.15917969,-0.23828125,0.98339844,-0.125,-0.1875,-0.1875,0.0,0.0,0.0
1664547829117,-0.15722656,-0.23144531,0.9951172,0.09375,-0.0625,0.09375,0.0,0.0,0.0
1664547829145,-0.15625,-0.24511719,0.9824219,-0.0625,-0.125,0.0,0.0,0.0,0.0
1664547829277,-0.16308594,-0.24121094,0.98828125,-0.0625,-0.0625,0.03125,0.0,0.0,0.0
1664547829279,-0.15234375,-0.24316406,0.98535156,0.34375,-0.375,-0.0625,0.0,0.0,0.0
1664547829281,-0.16113281,-0.23144531,0.9892578,0.0,0.0,-0.1875,0.0,0.0,0.0
1664547829323,-0.15917969,-0.234375,0.98339844,-0.1875,0.03125,-0.0625,0.0,0.0,0.0
1664547829349,-0.16308594,-0.234375,0.97558594,-0.3125,-0.25,-0.1875,0.0,0.0,0.0
1664547829370,-0.15917969,-0.22949219,0.96875,-0.125,-0.125,-0.125,0.0,0.0,0.0
1664547829514,-0.1640625,-0.23046875,0.9824219,-1.0,-0.625,-0.625,-31.1875,-47.0625,-65.4375
1664547829515,-0.16113281,-0.23535156,0.9824219,-0.8125,-1.34375,-0.9375,0.0,0.0,0.0
1664547829516,-0.15722656,-0.23828125,0.984375,-0.1875,-1.25,-0.375,0.0,0.0,0.0
1664547829542,-0.14648438,-0.23535156,0.96777344,0.15625,-0.75,0.0,0.0,0.0,0.0
1664547829593,-0.15429688,-0.24023438,0.99121094,-0.25,0.28125,-0.4375,0.0,0.0,0.0
1664547829616,-0.15527344,-0.22753906,0.96972656,-0.125,0.15625,-0.125,0.0,0.0,0.0
1664547829751,-0.15429688,-0.24023438,0.9794922,-0.0625,-0.125,0.15625,0.0,0.0,0.0
1664547829756,-0.14550781,-0.23242188,0.97265625,0.15625,-0.125,-0.0625,0.0,0.0,0.0
1664547829760,-0.15332031,-0.2421875,0.9824219,-0.0625,0.0,-0.125,0.0,0.0,0.0
1664547829803,-0.15722656,-0.23925781,0.9707031,0.09375,0.0,-0.0625,0.0,0.0,0.0
1664547829810,-0.15820312,-0.23632812,0.984375,0.0,-0.0625,0.03125,0.0,0.0,0.0
1664547829858,-0.14453125,-0.23046875,0.9785156,0.65625,0.34375,0.28125,0.0,0.0,0.0
1664547829905,-0.15332031,-0.22851562,0.9863281,0.0,0.90625,0.78125,0.0,0.0,0.0
1664547829929,-0.15917969,-0.23242188,0.97753906,0.15625,1.28125,0.71875,0.0,0.0,0.0
1664547829968,-0.16992188,-0.23535156,0.9814453,-0.4375,0.96875,0.53125,-31.8125,-47.6875,-64.6875
1664547830053,-0.17480469,-0.23046875,0.9628906,-0.75,0.0,0.40625,0.0,0.0,0.0
1664547830081,-0.16113281,-0.23242188,0.9824219,-0.9375,-0.1875,0.40625,0.0,0.0,0.0
1664547830118,-0.16210938,-0.23925781,0.9658203,-0.9375,0.21875,0.28125,0.0,0.0,0.0
1664547830168,-0.16210938,-0.25097656,0.97558594,-0.9375,0.03125,0.03125,0.0,0.0,0.0
1664547830202,-0.16113281,-0.25976562,0.9746094,-0.5625,0.34375,-0.1875,0.0,0.0,0.0
1664547830244,-0.15429688,-0.23828125,0.98339844,-0.1875,0.34375,-0.125,0.0,0.0,0.0
1664547830292,-0.16015625,-0.23632812,0.9746094,-0.375,0.84375,-0.1875,0.0,0.0,0.0
1664547830311,-0.15527344,-0.24414062,0.9794922,0.1875,-0.03125,-0.1875,0.0,0.0,0.0
1664547830335,-0.15917969,-0.23828125,0.9746094,-0.125,1.125,-0.5625,0.0,0.0,0.0
1664547830402,-0.16113281,-0.23828125,0.9746094,-0.71875,0.90625,-0.375,0.0,0.0,0.0
1664547830431,-0.16894531,-0.24511719,1.0019531,-1.15625,1.4375,-0.6875,0.0,0.0,0.0
1664547830466,-0.17089844,-0.25097656,0.98339844,-2.0,2.65625,-2.34375,-31.5,-48.4375,-63.375
1664547830525,-0.17773438,-0.25,0.95996094,-1.9375,2.84375,-2.6875,0.0,0.0,0.0
1664547830562,-0.17382812,-0.24316406,0.9589844,-0.375,0.59375,-1.0,0.0,0.0,0.0
1664547830606,-0.16992188,-0.234375,0.98046875,0.4375,-0.375,-0.0625,0.0,0.0,0.0
1664547830657,-0.16210938,-0.23828125,0.98046875,-0.46875,0.03125,-0.875,0.0,0.0,0.0
1664547830677,-0.16015625,-0.26171875,0.9794922,-0.3125,0.84375,-1.65625,0.0,0.0,0.0
1664547830702,-0.15429688,-0.2529297,0.9736328,-0.3125,0.78125,-1.96875,0.0,0.0,0.0
1664547830747,-0.1796875,-0.2548828,0.95996094,0.125,1.03125,-1.96875,0.0,0.0,0.0
1664547830766,-0.17089844,-0.25,0.96484375,0.375,1.0625,-2.21875,0.0,0.0,0.0
1664547830842,-0.17285156,-0.2421875,0.9628906,0.0,0.59375,-2.46875,0.0,0.0,0.0
1664547830902,-0.17382812,-0.25,0.97753906,0.5,0.03125,-1.78125,0.0,0.0,0.0
1664547830903,-0.17578125,-0.23144531,0.984375,0.3125,-0.375,-0.8125,0.0,0.0,0.0
1664547830937,-0.16992188,-0.23925781,0.9716797,0.3125,-0.15625,-0.4375,0.0,0.0,0.0
1664547830976,-0.16699219,-0.24902344,0.96484375,0.0625,-0.3125,-0.25,-32.375,-46.75,-66.1875
1664547831030,-0.16796875,-0.24804688,0.97753906,0.0625,-0.25,-0.1875,0.0,0.0,0.0
1664547831055,-0.16601562,-0.25195312,0.9873047,0.25,0.46875,-0.1875,0.0,0.0,0.0
1664547831095,-0.17089844,-0.25195312,0.96972656,-0.0625,0.09375,0.09375,0.0,0.0,0.0
1664547831129,-0.15527344,-0.24902344,0.984375,0.625,-0.21875,0.46875,0.0,0.0,0.0
1664547831166,-0.17089844,-0.25683594,0.9736328,0.3125,-0.09375,0.0,0.0,0.0,0.0
1664547831238,-0.16699219,-0.24511719,0.9785156,0.25,0.28125,-0.25,0.0,0.0,0.0
1664547831290,-0.1640625,-0.25097656,0.9580078,0.5625,-0.15625,0.21875,0.0,0.0,0.0
1664547831311,-0.16796875,-0.24804688,0.97753906,0.625,-0.21875,0.28125,0.0,0.0,0.0
1664547831358,-0.17675781,-0.24316406,0.96484375,0.1875,0.21875,-0.5,0.0,0.0,0.0
1664547831366,-0.16992188,-0.25,0.9628906,0.375,0.15625,-0.3125,0.0,0.0,0.0
1664547831413,-0.17382812,-0.25195312,0.98339844,0.5,-0.03125,0.0625,0.0,0.0,0.0
1664547831482,-0.16894531,-0.2421875,0.96875,0.25,-0.21875,-0.125,-32.5625,-49.4375,-66.0625
1664547831509,-0.15722656,-0.24707031,0.9902344,0.25,-0.21875,-0.125,0.0,0.0,0.0
1664547831520,-0.16894531,-0.25195312,0.96972656,-0.125,-0.09375,-0.1875,0.0,0.0,0.0
