# Sensor type: Thingy
# Activity type: Sitting bent backward
# Activity code: 5
# Subject id: s1956488
# Notes: 1
timestamp,accel_x,accel_y,accel_z,gyro_x,gyro_y,gyro_z,mag_x,mag_y,mag_z
1664547904789,-0.13183594,-0.2939453,0.9892578,0.5625,0.15625,-0.8125,0.0,0.0,0.0
1664547904843,-0.11328125,-0.2685547,0.9667969,0.6875,0.90625,-1.46875,0.0,0.0,0.0
1664547904875,-0.1171875,-0.27929688,0.9482422,0.4375,2.25,-1.1875,0.0,0.0,0.0
1664547904909,-0.13183594,-0.28320312,0.97558594,0.5625,3.34375,-1.78125,0.0,0.0,0.0
1664547904929,-0.14355469,-0.2705078,0.96777344,1.96875,2.84375,-2.9375,-27.3125,-50.8125,-68.125
1664547904990,-0.13574219,-0.27148438,0.9824219,2.9375,1.375,-4.03125,0.0,0.0,0.0
1664547905027,-0.12988281,-0.2548828,0.98339844,3.0,1.0625,-3.8125,0.0,0.0,0.0
1664547905066,-0.14453125,-0.21972656,0.9707031,2.03125,1.6875,-3.25,0.0,0.0,0.0
1664547905130,-0.15625,-0.21582031,0.98046875,0.0,2.40625,-3.84375,0.0,0.0,0.0
1664547905162,-0.140625,-0.21679688,0.98046875,-3.65625,2.71875,-4.21875,0.0,0.0,0.0
1664547905184,-0.14257812,-0.24316406,0.9970703,-6.21875,1.1875,-3.125,0.0,0.0,0.0
1664547905247,-0.17675781,-0.2529297,0.8847656,9.53125,-9.3125,-4.71875,0.0,0.0,0.0
1664547905263,-0.040039062,-0.22753906,1.0253906,32.90625,-33.84375,-6.84375,0.0,0.0,0.0
1664547905296,-0.11230469,-0.31152344,1.0507812,-18.375,4.5,9.3125,0.0,0.0,0.0
1664547905348,-0.12792969,-0.28125,0.95703125,-3.0,5.96875,4.8125,0.0,0.0,0.0
1664547905404,-0.115234375,-0.25585938,0.9482422,9.84375,-7.34375,0.96875,0.0,0.0,0.0
1664547905453,-0.09082031,-0.24023438,1.0058594,9.28125,-6.96875,0.59375,0.0,0.0,0.0
1664547905489,-0.119140625,-0.234375,0.9921875,0.625,0.21875,1.6875,-25.375,-49.625,-65.125
1664547905508,-0.115234375,-0.23242188,0.96484375,0.96875,-0.9375,2.3125,0.0,0.0,0.0
1664547905533,-0.10253906,-0.23828125,0.9814453,5.5,-4.0625,1.75,0.0,0.0,0.0
1664547905590,-0.09765625,-0.22949219,0.9941406,1.53125,-1.5625,1.5625,0.0,0.0,0.0
1664547905617,-0.10058594,-0.23730469,0.9814453,-1.15625,1.03125,0.40625,0.0,0.0,0.0
1664547905650,-0.09375,-0.23242188,0.96875,0.5,-0.03125,-0.3125,0.0,0.0,0.0
1664547905709,-0.10253906,-0.24316406,0.9921875,-0.46875,0.21875,-0.3125,0.0,0.0,0.0
1664547905739,-0.10253906,-0.23925781,0.98339844,-0.71875,0.65625,-0.375,0.0,0.0,0.0
1664547905773,-0.09863281,-0.25097656,0.9746094,0.3125,-0.09375,-0.125,0.0,0.0,0.0
1664547905833,-0.103515625,-0.234375,0.9765625,0.375,-0.3125,-0.4375,0.0,0.0,0.0
1664547905865,-0.10839844,-0.23925781,0.98339844,0.96875,-0.21875,-0.8125,0.0,0.0,0.0
1664547905904,-0.099609375,-0.24414062,0.98828125,0.875,0.21875,-0.6875,0.0,0.0,0.0
1664547905958,-0.11035156,-0.23828125,0.98535156,1.03125,0.15625,-0.6875,-25.8125,-49.1875,-66.375
1664547905978,-0.10644531,-0.22949219,0.98535156,1.21875,0.21875,-0.9375,0.0,0.0,0.0
1664547906043,-0.10839844,-0.23242188,0.98339844,0.96875,0.15625,-1.25,0.0,0.0,0.0
1664547906066,-0.10546875,-0.23730469,0.99121094,0.96875,0.03125,-1.1875,0.0,0.0,0.0
1664547906095,-0.10546875,-0.23535156,0.99121094,1.15625,0.03125,-1.25,0.0,0.0,0.0
1664547906144,-0.09765625,-0.22949219,0.98828125,0.8125,0.40625,-1.125,0.0,0.0,0.0
1664547906188,-0.09667969,-0.22460938,0.9814453,0.625,0.40625,-0.875,0.0,0.0,0.0
1664547906220,-0.09863281,-0.22167969,1.0,0.8125,0.09375,-0.875,0.0,0.0,0.0
1664547906259,-0.10644531,-0.21972656,0.9863281,0.375,0.03125,-0.625,0.0,0.0,0.0
1664547906326,-0.109375,-0.22363281,0.984375,0.1875,0.21875,-0.5,0.0,0.0,0.0
1664547906341,-0.10253906,-0.23339844,0.98828125,0.25,0.09375,-0.4375,0.0,0.0,0.0
1664547906379,-0.103515625,-0.22167969,0.9873047,0.125,0.03125,-0.125,0.0,0.0,0.0
1664547906426,-0.10839844,-0.23242188,0.98535156,0.0625,-0.25,-0.0625,0.0,0.0,0.0
1664547906474,-0.11035156,-0.22558594,0.9921875,0.25,0.28125,0.09375,-25.0625,-48.6875,-66.8125
1664547906528,-0.10449219,-0.22851562,1.0029297,-0.25,0.09375,0.28125,0.0,0.0,0.0
1664547906600,-0.10839844,-0.23242188,0.98046875,0.3125,0.09375,0.53125,0.0,0.0,0.0
1664547906633,-0.10644531,-0.234375,0.9941406,0.0625,-0.15625,0.53125,0.0,0.0,0.0
1664547906634,-0.10449219,-0.22363281,0.9941406,0.125,-0.375,0.40625,0.0,0.0,0.0
1664547906692,-0.11035156,-0.23046875,0.99316406,0.125,-0.5625,0.53125,0.0,0.0,0.0
1664547906730,-0.103515625,-0.23144531,0.9980469,0.375,-0.25,1.03125,0.0,0.0,0.0
1664547906761,-0.095703125,-0.22460938,0.98339844,-0.46875,-0.625,1.4375,0.0,0.0,0.0
1664547906827,-0.10546875,-0.22363281,0.98535156,0.0625,-1.125,1.625,0.0,0.0,0.0
1664547906859,-0.111328125,-0.21972656,0.9814453,0.0,-1.4375,1.8125,0.0,0.0,0.0
1664547906893,-0.09765625,-0.22265625,0.9794922,-0.125,-1.125,1.875,0.0,0.0,0.0
1664547906918,-0.103515625,-0.22167969,0.98046875,-0.375,-0.375,2.5625,0.0,0.0,0.0
1664547906954,-0.09277344,-0.22167969,0.98535156,-0.46875,-1.0625,2.4375,-26.6875,-51.125,-66.625
1664547906975,-0.099609375,-0.23535156,1.0,-0.65625,-0.5,2.375,0.0,0.0,0.0
1664547907033,-0.1171875,-0.22949219,0.9824219,-1.09375,-0.9375,3.09375,0.0,0.0,0.0
1664547907057,-0.10546875,-0.22753906,0.98535156,-0.3125,-1.4375,3.46875,0.0,0.0,0.0
1664547907100,-0.10449219,-0.23242188,0.98828125,-0.4375,-1.0,4.0625,0.0,0.0,0.0
1664547907175,-0.103515625,-0.22949219,0.9873047,0.3125,-1.4375,4.125,0.0,0.0,0.0
1664547907206,-0.09667969,-0.23730469,1.0029297,-0.4375,-1.96875,4.375,0.0,0.0,0.0
1664547907220,-0.09765625,-0.22753906,0.9873047,-0.3125,-2.03125,4.5625,0.0,0.0,0.0
1664547907271,-0.099609375,-0.22265625,0.9863281,0.0,-2.40625,4.9375,0.0,0.0,0.0
1664547907304,-0.095703125,-0.23242188,0.9902344,0.0,-1.78125,5.125,0.0,0.0,0.0
1664547907330,-0.099609375,-0.22753906,0.9863281,-0.4375,-1.5625,5.0625,0.0,0.0,0.0
1664547907398,-0.09667969,-0.23144531,0.9951172,-0.78125,-1.25,5.25,0.0,0.0,0.0
1664547907418,-0.091796875,-0.23144531,0.984375,-0.90625,-1.0,5.34375,0.0,0.0,0.0
1664547907445,-0.107421875,-0.22753906,0.9863281,-0.90625,-0.5,5.40625,-25.375,-51.4375,-65.625
1664547907510,-0.109375,-0.22851562,0.9873047,-0.71875,-0.625,5.46875,0.0,0.0,0.0
1664547907546,-0.103515625,-0.22949219,0.9902344,-0.46875,-0.6875,5.53125,0.0,0.0,0.0
1664547907569,-0.10253906,-0.24023438,0.9892578,-0.59375,-0.875,5.0625,0.0,0.0,0.0
1664547907635,-0.107421875,-0.2421875,0.98535156,-0.90625,-0.625,4.5,0.0,0.0,0.0
1664547907658,-0.10253906,-0.23046875,0.9970703,-0.375,-0.4375,4.25,0.0,0.0,0.0
1664547907712,-0.10839844,-0.24414062,0.9814453,-1.28125,0.21875,4.0625,0.0,0.0,0.0
1664547907754,-0.107421875,-0.23828125,0.99121094,-0.46875,-0.21875,3.59375,0.0,0.0,0.0
1664547907805,-0.10449219,-0.23730469,0.9765625,-0.1875,-0.25,3.53125,0.0,0.0,0.0
1664547907816,-0.10058594,-0.23535156,0.97265625,0.125,-0.75,3.21875,0.0,0.0,0.0
1664547907865,-0.10839844,-0.24023438,0.98339844,0.375,-1.0625,2.78125,0.0,0.0,0.0
1664547907917,-0.09472656,-0.23828125,0.99121094,0.375,-0.375,2.65625,0.0,0.0,0.0
1664547907960,-0.11230469,-0.23242188,0.98339844,0.3125,-0.625,2.5,-24.625,-50.6875,-64.875
1664547908029,-0.10546875,-0.22558594,0.9863281,0.4375,-0.5625,2.4375,0.0,0.0,0.0
1664547908070,-0.109375,-0.23828125,0.9863281,0.3125,-0.5625,2.5625,0.0,0.0,0.0
1664547908087,-0.109375,-0.23339844,0.9873047,0.4375,-0.75,2.3125,0.0,0.0,0.0
1664547908146,-0.10644531,-0.22753906,0.9863281,0.125,-0.8125,2.0,0.0,0.0,0.0
1664547908172,-0.107421875,-0.234375,0.9765625,0.125,-0.625,2.1875,0.0,0.0,0.0
1664547908188,-0.103515625,-0.22558594,0.96972656,0.125,-0.6875,2.25,0.0,0.0,0.0
1664547908253,-0.099609375,-0.22753906,0.98046875,-0.125,-0.75,2.125,0.0,0.0,0.0
1664547908273,-0.103515625,-0.23339844,0.99121094,0.375,-0.875,2.1875,0.0,0.0,0.0
1664547908351,-0.10644531,-0.23828125,0.99121094,-0.4375,-0.15625,2.125,0.0,0.0,0.0
1664547908380,-0.10839844,-0.234375,0.9814453,-0.59375,-0.21875,1.5625,0.0,0.0,0.0
1664547908401,-0.10839844,-0.22558594,0.9902344,-0.375,-0.5,1.375,0.0,0.0,0.0
1664547908441,-0.09667969,-0.234375,0.99316406,-0.1875,-0.8125,0.96875,0.0,0.0,0.0
1664547908500,-0.11230469,-0.23828125,0.9941406,-0.125,-0.75,0.84375,-24.4375,-50.1875,-65.4375
1664547908522,-0.10058594,-0.22851562,0.98535156,0.125,-0.75,0.53125,0.0,0.0,0.0
1664547908531,-0.10449219,-0.24023438,0.99121094,0.1875,-0.25,0.34375,0.0,0.0,0.0
1664547908611,-0.103515625,-0.24023438,1.0068359,0.3125,-0.09375,0.09375,0.0,0.0,0.0
1664547908643,-0.10058594,-0.23339844,0.9921875,0.5,-0.21875,-0.0625,0.0,0.0,0.0
1664547908658,-0.111328125,-0.24707031,0.9892578,0.5625,0.09375,-0.25,0.0,0.0,0.0
1664547908708,-0.10546875,-0.23144531,0.9873047,0.75,0.15625,-0.625,0.0,0.0,0.0
1664547908737,-0.09472656,-0.22265625,0.99316406,0.5625,-0.09375,-0.875,0.0,0.0,0.0
1664547908770,-0.09765625,-0.234375,0.9873047,0.25,0.46875,-1.28125,0.0,0.0,0.0
1664547908832,-0.10058594,-0.23242188,1.0019531,0.1875,0.15625,-1.34375,0.0,0.0,0.0
1664547908862,-0.10644531,-0.23828125,0.98046875,0.4375,0.03125,-1.59375,0.0,0.0,0.0
1664547908899,-0.10546875,-0.23925781,0.9824219,0.625,0.15625,-1.59375,0.0,0.0,0.0
1664547908959,-0.10546875,-0.23535156,0.9824219,0.25,0.59375,-1.65625,-24.4375,-51.25,-66.375
1664547908991,-0.10058594,-0.2265625,0.9873047,0.5625,0.40625,-1.65625,0.0,0.0,0.0
1664547909005,-0.10839844,-0.24316406,0.99316406,0.6875,0.28125,-1.53125,0.0,0.0,0.0
1664547909101,-0.09863281,-0.23339844,0.9824219,0.90625,0.09375,-1.53125,0.0,0.0,0.0
1664547909109,-0.095703125,-0.23339844,0.9892578,0.8125,0.03125,-1.78125,0.0,0.0,0.0
1664547909134,-0.095703125,-0.22753906,0.98535156,0.96875,0.03125,-1.65625,0.0,0.0,0.0
1664547909199,-0.10839844,-0.23144531,0.99609375,0.5,0.28125,-1.46875,0.0,0.0,0.0
1664547909253,-0.107421875,-0.22265625,0.9873047,0.5625,0.28125,-1.40625,0.0,0.0,0.0
1664547909296,-0.09667969,-0.23046875,0.9824219,0.625,0.09375,-1.125,0.0,0.0,0.0
1664547909344,-0.10058594,-0.22460938,0.99902344,0.5,0.09375,-1.125,0.0,0.0,0.0
1664547909363,-0.10839844,-0.23144531,0.9873047,0.3125,0.21875,-0.8125,0.0,0.0,0.0
1664547909386,-0.10253906,-0.22753906,0.9970703,0.3125,-0.09375,-0.8125,0.0,0.0,0.0
1664547909435,-0.10253906,-0.23242188,0.9941406,0.375,-0.09375,-0.625,0.0,0.0,0.0
1664547909477,-0.1015625,-0.23144531,0.9951172,0.1875,-0.09375,-0.375,-24.125,-50.6875,-65.625
1664547909492,-0.10449219,-0.22265625,0.9785156,0.3125,-0.15625,-0.125,0.0,0.0,0.0
1664547909548,-0.111328125,-0.23046875,0.99609375,0.25,-0.4375,0.0,0.0,0.0,0.0
1664547909588,-0.10449219,-0.22265625,0.9873047,0.75,-0.4375,0.21875,0.0,0.0,0.0
1664547909627,-0.099609375,-0.22851562,0.984375,-0.1875,0.03125,0.40625,0.0,0.0,0.0
1664547909682,-0.111328125,-0.22363281,0.9970703,0.3125,-0.09375,0.65625,0.0,0.0,0.0
1664547909706,-0.1015625,-0.21484375,0.99902344,0.125,-0.15625,0.71875,0.0,0.0,0.0
1664547909731,-0.09765625,-0.23339844,0.98535156,0.0625,-0.25,0.65625,0.0,0.0,0.0
1664547909791,-0.10449219,-0.22558594,0.9824219,0.0625,-0.4375,0.65625,0.0,0.0,0.0
1664547909833,-0.10839844,-0.22070312,1.0,-0.0625,-0.5,0.59375,0.0,0.0,0.0
1664547909851,-0.10058594,-0.234375,0.9824219,-0.3125,-0.21875,0.46875,0.0,0.0,0.0
1664547909907,-0.10449219,-0.22265625,0.99609375,-0.25,-0.21875,0.40625,0.0,0.0,0.0
1664547909946,-0.10058594,-0.22460938,0.9873047,-0.0625,-0.3125,0.21875,-23.6875,-50.1875,-67.125
1664547909984,-0.10253906,-0.23339844,0.98046875,0.125,-0.375,0.40625,0.0,0.0,0.0
1664547910041,-0.10058594,-0.23339844,0.99609375,0.125,-0.3125,0.21875,0.0,0.0,0.0
1664547910061,-0.103515625,-0.23242188,0.9941406,0.25,-0.3125,0.0625,0.0,0.0,0.0
1664547910085,-0.109375,-0.22851562,0.99316406,0.1875,-0.25,0.09375,0.0,0.0,0.0
1664547910149,-0.107421875,-0.23144531,0.9824219,0.375,-0.15625,0.0625,0.0,0.0,0.0
1664547910189,-0.09863281,-0.22167969,0.9902344,0.375,0.15625,0.0625,0.0,0.0,0.0
1664547910225,-0.109375,-0.2265625,0.99121094,0.375,0.09375,0.09375,0.0,0.0,0.0
1664547910266,-0.09472656,-0.22753906,0.98046875,0.1875,-0.25,-0.1875,0.0,0.0,0.0
1664547910301,-0.10058594,-0.23339844,0.9892578,0.75,-0.5625,0.15625,0.0,0.0,0.0
1664547910334,-0.103515625,-0.24121094,0.9863281,-0.96875,1.125,-0.25,0.0,0.0,0.0
1664547910396,-0.09863281,-0.21289062,0.98828125,-1.9375,1.875,-1.125,0.0,0.0,0.0
1664547910428,-0.10253906,-0.21875,0.9970703,-0.71875,0.53125,-1.28125,0.0,0.0,0.0
1664547910447,-0.10546875,-0.22265625,0.99121094,-0.0625,0.40625,-0.25,-23.6875,-50.5,-66.375
1664547910545,-0.11035156,-0.234375,0.98535156,0.4375,-0.5625,0.34375,0.0,0.0,0.0
1664547910566,-0.10546875,-0.22949219,0.98046875,0.75,-1.0,0.53125,0.0,0.0,0.0
1664547910633,-0.1015625,-0.23535156,0.99121094,0.125,-0.21875,0.34375,0.0,0.0,0.0
1664547910669,-0.09765625,-0.22851562,1.0029297,0.5625,0.09375,0.0625,0.0,0.0,0.0
1664547910693,-0.10644531,-0.22460938,1.0,0.1875,0.34375,0.34375,0.0,0.0,0.0
1664547910708,-0.10644531,-0.22949219,0.98828125,0.4375,-0.25,0.46875,0.0,0.0,0.0
1664547910766,-0.10644531,-0.23144531,0.9902344,0.3125,-0.625,0.21875,0.0,0.0,0.0
1664547910788,-0.095703125,-0.23144531,1.0009766,0.375,-0.6875,0.0,0.0,0.0,0.0
1664547910819,-0.09863281,-0.22167969,0.99121094,-0.25,-0.375,-0.25,0.0,0.0,0.0
1664547910876,-0.099609375,-0.23339844,0.99609375,-0.125,-0.21875,-0.5,0.0,0.0,0.0
1664547910899,-0.10839844,-0.23828125,0.98828125,-0.375,0.78125,-0.25,0.0,0.0,0.0
1664547910927,-0.11230469,-0.23632812,0.9746094,-0.1875,0.34375,-0.125,-24.75,-50.1875,-66.375
1664547910996,-0.09667969,-0.23535156,0.9892578,0.3125,-0.3125,0.0,0.0,0.0,0.0
1664547911031,-0.09863281,-0.23339844,0.9873047,1.34375,-0.8125,0.09375,0.0,0.0,0.0
1664547911046,-0.099609375,-0.23828125,0.99121094,0.375,0.15625,0.09375,0.0,0.0,0.0
1664547911124,-0.107421875,-0.23730469,0.9921875,0.625,-0.09375,0.15625,0.0,0.0,0.0
1664547911139,-0.10546875,-0.23242188,0.9873047,0.375,0.34375,0.0625,0.0,0.0,0.0
1664547911175,-0.10839844,-0.22363281,0.9902344,-0.0625,0.03125,-0.25,0.0,0.0,0.0
1664547911227,-0.109375,-0.22265625,0.9902344,0.25,-0.375,-0.4375,0.0,0.0,0.0
1664547911259,-0.107421875,-0.22753906,0.98828125,0.3125,-0.375,-0.1875,0.0,0.0,0.0
1664547911317,-0.10644531,-0.23046875,0.9736328,-0.0625,-0.25,-0.125,0.0,0.0,0.0
1664547911357,-0.103515625,-0.23144531,0.9902344,0.125,-0.25,0.0,0.0,0.0,0.0
1664547911394,-0.107421875,-0.22851562,0.98046875,0.25,-0.4375,0.0625,0.0,0.0,0.0
1664547911429,-0.095703125,-0.22460938,0.9765625,0.125,-0.21875,0.15625,0.0,0.0,0.0
1664547911476,-0.103515625,-0.22265625,0.98339844,0.4375,-0.5,0.0625,-22.625,-50.5,-65.75
1664547911514,-0.099609375,-0.23046875,0.9794922,0.375,-0.375,0.15625,0.0,0.0,0.0
1664547911543,-0.09765625,-0.23242188,0.9814453,0.1875,-0.09375,0.09375,0.0,0.0,0.0
1664547911592,-0.107421875,-0.22363281,0.9824219,0.1875,-0.09375,0.0625,0.0,0.0,0.0
1664547911616,-0.107421875,-0.22460938,0.99316406,0.25,-0.15625,-0.0625,0.0,0.0,0.0
1664547911664,-0.09863281,-0.23046875,0.9873047,0.125,-0.09375,-0.0625,0.0,0.0,0.0
1664547911732,-0.09667969,-0.23535156,0.9902344,0.5625,-0.3125,-0.0625,0.0,0.0,0.0
1664547911745,-0.09863281,-0.22363281,0.9765625,0.125,0.71875,0.09375,0.0,0.0,0.0
1664547911773,-0.09765625,-0.23046875,0.98046875,-0.0625,0.84375,-0.0625,0.0,0.0,0.0
1664547911827,-0.109375,-0.23242188,0.9951172,0.125,0.90625,-0.1875,0.0,0.0,0.0
1664547911869,-0.10839844,-0.23535156,0.9902344,-0.375,0.90625,-0.5625,0.0,0.0,0.0
1664547911894,-0.10644531,-0.23925781,0.9941406,-0.1875,0.84375,-1.0,0.0,0.0,0.0
1664547911955,-0.107421875,-0.23828125,0.9814453,0.1875,0.65625,-1.0625,-25.0625,-50.1875,-66.8125
1664547911993,-0.109375,-0.23632812,0.97558594,0.0625,0.53125,-1.40625,0.0,0.0,0.0
1664547912023,-0.09863281,-0.234375,0.9785156,0.1875,0.59375,-1.71875,0.0,0.0,0.0
1664547912067,-0.09863281,-0.24023438,0.98828125,0.5625,0.65625,-1.84375,0.0,0.0,0.0
1664547912100,-0.109375,-0.23925781,0.97753906,0.875,0.59375,-2.34375,0.0,0.0,0.0
1664547912132,-0.095703125,-0.22753906,0.9863281,0.96875,0.59375,-2.625,0.0,0.0,0.0
1664547912186,-0.10449219,-0.23730469,0.98828125,0.90625,0.65625,-3.125,0.0,0.0,0.0
1664547912248,-0.09765625,-0.23632812,0.99121094,0.96875,0.90625,-3.1875,0.0,0.0,0.0
1664547912276,-0.109375,-0.23535156,0.9707031,0.8125,0.65625,-3.5625,0.0,0.0,0.0
1664547912355,-0.09765625,-0.23046875,0.98828125,0.96875,0.53125,-3.5625,0.0,0.0,0.0
1664547912371,-0.10449219,-0.21875,0.9951172,0.875,0.28125,-3.75,0.0,0.0,0.0
1664547912407,-0.099609375,-0.23242188,0.9921875,1.15625,0.46875,-3.5625,0.0,0.0,0.0
1664547912458,-0.10644531,-0.21972656,0.98828125,0.625,0.84375,-3.4375,0.0,0.0,0.0
1664547912486,-0.111328125,-0.22265625,0.9941406,0.75,0.65625,-3.25,-24.125,-52.1875,-66.625
1664547912513,-0.11425781,-0.22460938,0.9941406,0.5625,0.53125,-3.0,0.0,0.0,0.0
1664547912579,-0.10839844,-0.21289062,0.99316406,0.5625,0.03125,-2.46875,0.0,0.0,0.0
1664547912599,-0.107421875,-0.22753906,1.0,0.625,-0.21875,-1.90625,0.0,0.0,0.0
1664547912628,-0.09863281,-0.22558594,1.0019531,0.875,-0.21875,-1.40625,0.0,0.0,0.0
1664547912679,-0.10546875,-0.21582031,0.99316406,0.375,0.15625,-0.8125,0.0,0.0,0.0
1664547912716,-0.099609375,-0.21679688,1.0029297,0.1875,-0.09375,-0.4375,0.0,0.0,0.0
1664547912754,-0.10253906,-0.21972656,1.0,0.25,-0.25,0.0,0.0,0.0,0.0
1664547912795,-0.111328125,-0.22851562,0.9941406,0.125,-0.375,0.21875,0.0,0.0,0.0
1664547912820,-0.1015625,-0.22460938,0.99316406,0.125,-0.5,0.65625,0.0,0.0,0.0
1664547912878,-0.099609375,-0.22265625,0.9980469,0.0625,-0.5,1.03125,0.0,0.0,0.0
1664547912933,-0.107421875,-0.21972656,0.9863281,-0.25,-0.15625,1.28125,0.0,0.0,0.0
1664547912962,-0.10449219,-0.22265625,0.99902344,-0.375,-0.3125,1.34375,-24.875,-50.375,-65.625
1664547912983,-0.10449219,-0.22167969,0.99609375,-0.125,-0.625,1.375,0.0,0.0,0.0
1664547913056,-0.103515625,-0.22949219,0.98339844,0.0,-0.25,1.375,0.0,0.0,0.0
1664547913089,-0.10449219,-0.22363281,0.9873047,-0.53125,0.03125,1.375,0.0,0.0,0.0
1664547913120,-0.10253906,-0.22753906,0.99121094,0.0625,-0.3125,1.34375,0.0,0.0,0.0
1664547913151,-0.10449219,-0.23046875,0.9980469,-0.1875,-0.21875,1.03125,0.0,0.0,0.0
1664547913178,-0.115234375,-0.23144531,0.9941406,0.0,-0.4375,0.71875,0.0,0.0,0.0
1664547913210,-0.10644531,-0.23925781,0.98339844,0.125,-0.75,0.46875,0.0,0.0,0.0
1664547913270,-0.10253906,-0.234375,0.984375,0.0625,-0.25,0.09375,0.0,0.0,0.0
1664547913300,-0.109375,-0.22851562,0.9902344,-0.0625,0.15625,0.0,0.0,0.0,0.0
1664547913329,-0.10546875,-0.22558594,0.9873047,0.1875,-0.25,-0.1875,0.0,0.0,0.0
1664547913390,-0.10546875,-0.22460938,0.99609375,0.25,-0.03125,-0.25,0.0,0.0,0.0
1664547913420,-0.10449219,-0.21875,1.0068359,0.4375,-0.03125,-0.5625,0.0,0.0,0.0
1664547913453,-0.09863281,-0.23144531,1.0097656,0.375,0.09375,-0.5625,-23.875,-50.0625,-65.125
1664547913509,-0.10253906,-0.22265625,0.99316406,0.25,0.15625,-0.625,0.0,0.0,0.0
1664547913540,-0.10546875,-0.22851562,0.99609375,0.375,0.09375,-0.5,0.0,0.0,0.0
1664547913570,-0.103515625,-0.2265625,0.98535156,0.375,-0.03125,-0.5625,0.0,0.0,0.0
1664547913628,-0.10644531,-0.22363281,0.9863281,0.5,-0.3125,-0.5625,0.0,0.0,0.0
1664547913658,-0.107421875,-0.23339844,0.99902344,0.25,0.46875,-0.4375,0.0,0.0,0.0
1664547913688,-0.10839844,-0.22265625,0.984375,0.0,0.15625,-0.25,0.0,0.0,0.0
1664547913750,-0.103515625,-0.22070312,0.9873047,0.1875,0.21875,-0.125,0.0,0.0,0.0
1664547913781,-0.111328125,-0.22558594,0.9863281,0.0625,-0.21875,0.0,0.0,0.0,0.0
1664547913809,-0.10449219,-0.22851562,0.9863281,0.125,-0.25,-0.125,0.0,0.0,0.0
1664547913869,-0.10449219,-0.22070312,0.98339844,0.125,-0.3125,0.0625,0.0,0.0,0.0
1664547913899,-0.10253906,-0.23242188,0.9716797,0.125,-0.21875,0.09375,0.0,0.0,0.0
1664547913931,-0.10449219,-0.22363281,0.984375,0.0,-0.21875,0.21875,-24.75,-48.6875,-65.75
1664547913989,-0.103515625,-0.22363281,1.0,0.1875,-0.21875,0.28125,0.0,0.0,0.0
1664547914016,-0.099609375,-0.22753906,0.9921875,0.0625,-0.09375,0.21875,0.0,0.0,0.0
1664547914047,-0.099609375,-0.22070312,0.97753906,0.125,-0.25,0.28125,0.0,0.0,0.0
1664547914108,-0.109375,-0.22949219,1.0029297,0.125,-0.15625,0.21875,0.0,0.0,0.0
1664547914137,-0.10449219,-0.22363281,0.9736328,0.1875,-0.03125,0.28125,0.0,0.0,0.0
1664547914168,-0.11328125,-0.22460938,0.9873047,0.1875,-0.03125,0.15625,0.0,0.0,0.0
1664547914230,-0.103515625,-0.22167969,0.98828125,0.0625,-0.15625,0.0,0.0,0.0,0.0
1664547914259,-0.10546875,-0.23144531,0.9902344,0.3125,-0.3125,0.0625,0.0,0.0,0.0
1664547914288,-0.103515625,-0.22363281,1.0019531,0.125,0.40625,0.09375,0.0,0.0,0.0
1664547914350,-0.11425781,-0.22753906,0.98535156,-0.125,0.03125,0.0,0.0,0.0,0.0
1664547914378,-0.10253906,-0.22070312,0.98339844,0.1875,0.03125,0.0,0.0,0.0,0.0
1664547914414,-0.10058594,-0.22265625,1.0,0.125,-0.3125,-0.0625,0.0,0.0,0.0
1664547914471,-0.095703125,-0.234375,0.9892578,0.3125,-0.3125,0.0625,-24.125,-51.125,-66.625
1664547914505,-0.109375,-0.22851562,0.9814453,0.25,-0.25,-0.0625,0.0,0.0,0.0
1664547914529,-0.11621094,-0.22460938,0.9863281,0.0625,0.09375,-0.1875,0.0,0.0,0.0
1664547914591,-0.10644531,-0.22265625,0.9941406,0.25,0.09375,0.09375,0.0,0.0,0.0
1664547914622,-0.107421875,-0.22558594,0.99316406,0.3125,-0.21875,0.0625,0.0,0.0,0.0
1664547914649,-0.10253906,-0.22265625,0.98828125,0.3125,-0.09375,0.21875,0.0,0.0,0.0
1664547914713,-0.099609375,-0.2265625,0.9873047,0.1875,-0.03125,0.09375,0.0,0.0,0.0
1664547914738,-0.095703125,-0.23046875,0.9873047,0.1875,0.03125,0.15625,0.0,0.0,0.0
1664547914770,-0.103515625,-0.22070312,1.0029297,0.1875,0.15625,0.15625,0.0,0.0,0.0
1664547914831,-0.107421875,-0.21875,0.9863281,-0.0625,-0.09375,0.0625,0.0,0.0,0.0
1664547914860,-0.09863281,-0.22363281,0.9902344,-0.0625,-0.09375,-0.125,0.0,0.0,0.0
1664547914888,-0.10253906,-0.23046875,0.9863281,0.375,-0.3125,0.0,0.0,0.0,0.0
1664547914947,-0.103515625,-0.22558594,0.98339844,-0.125,0.40625,0.0625,-24.875,-49.3125,-65.875
1664547914978,-0.09667969,-0.2265625,0.9785156,-0.0625,-0.15625,0.0,0.0,0.0,0.0
1664547915011,-0.11328125,-0.23046875,0.9785156,0.1875,-0.03125,0.0625,0.0,0.0,0.0
1664547915069,-0.103515625,-0.22851562,0.97753906,0.3125,-0.375,-0.0625,0.0,0.0,0.0
1664547915100,-0.099609375,-0.23144531,0.98828125,0.375,-0.375,0.0625,0.0,0.0,0.0
1664547915159,-0.091796875,-0.21484375,0.99609375,0.375,-0.25,0.0625,0.0,0.0,0.0
1664547915189,-0.09667969,-0.22265625,1.0068359,0.0625,-0.15625,0.09375,0.0,0.0,0.0
1664547915222,-0.109375,-0.21679688,0.9892578,0.125,-0.09375,-0.0625,0.0,0.0,0.0
1664547915250,-0.1015625,-0.22558594,0.9902344,-0.0625,0.03125,0.0625,0.0,0.0,0.0
1664547915313,-0.10449219,-0.22460938,0.9746094,-0.25,0.09375,-0.0625,0.0,0.0,0.0
1664547915339,-0.10449219,-0.22851562,0.99316406,-0.0625,-0.21875,-0.125,0.0,0.0,0.0
1664547915369,-0.103515625,-0.22363281,0.9941406,0.0625,-0.25,-0.0625,0.0,0.0,0.0
1664547915431,-0.103515625,-0.22851562,0.9794922,0.0625,-0.15625,0.0625,0.0,0.0,0.0
1664547915459,-0.10839844,-0.23339844,0.98339844,0.125,-0.15625,0.0625,-25.375,-50.375,-66.625
1664547915488,-0.10449219,-0.22558594,0.9941406,0.0,-0.21875,-0.0625,0.0,0.0,0.0
1664547915550,-0.10644531,-0.23339844,0.9921875,0.4375,-0.25,0.0625,0.0,0.0,0.0
1664547915579,-0.09765625,-0.22949219,0.9765625,0.0,0.28125,0.0,0.0,0.0,0.0
1664547915607,-0.103515625,-0.23730469,0.9824219,0.3125,0.15625,0.0,0.0,0.0,0.0
1664547915671,-0.111328125,-0.22851562,0.9707031,0.25,0.09375,0.0,0.0,0.0,0.0
1664547915699,-0.099609375,-0.22949219,0.9873047,0.125,-0.15625,-0.0625,0.0,0.0,0.0
1664547915728,-0.10253906,-0.21777344,0.9863281,0.25,-0.25,-0.125,0.0,0.0,0.0
1664547915789,-0.10253906,-0.22753906,0.9863281,0.3125,-0.3125,-0.125,0.0,0.0,0.0
1664547915821,-0.103515625,-0.22558594,0.98828125,0.5,-0.21875,0.0,0.0,0.0,0.0
1664547915853,-0.10449219,-0.21875,1.0019531,0.3125,-0.25,0.0625,0.0,0.0,0.0
1664547915911,-0.11425781,-0.23535156,0.984375,0.125,0.09375,0.15625,0.0,0.0,0.0
1664547915939,-0.10546875,-0.22070312,0.97753906,0.125,-0.15625,0.09375,-26.125,-50.8125,-66.0625
1664547915971,-0.09863281,-0.21484375,0.98535156,0.5625,-0.4375,-0.125,0.0,0.0,0.0
1664547916028,-0.09863281,-0.23046875,0.98535156,0.125,-0.15625,-0.125,0.0,0.0,0.0
1664547916059,-0.10449219,-0.22851562,0.98828125,0.125,-0.15625,-0.1875,0.0,0.0,0.0
1664547916090,-0.10839844,-0.22949219,1.0,0.125,-0.21875,0.15625,0.0,0.0,0.0
1664547916150,-0.10253906,-0.22558594,0.9873047,0.3125,-0.25,0.21875,0.0,0.0,0.0
1664547916178,-0.107421875,-0.22363281,0.9873047,0.0625,-0.25,0.09375,0.0,0.0,0.0
1664547916208,-0.09863281,-0.22949219,0.9951172,0.6875,-0.5625,0.15625,0.0,0.0,0.0
1664547916272,-0.103515625,-0.22753906,0.99609375,-0.3125,0.28125,0.21875,0.0,0.0,0.0
1664547916298,-0.10839844,-0.21875,1.0,0.1875,0.03125,0.09375,0.0,0.0,0.0
1664547916330,-0.10449219,-0.21777344,0.97558594,0.125,-0.09375,0.0,0.0,0.0,0.0
1664547916390,-0.10253906,-0.23339844,0.9921875,0.0625,-0.5625,-0.125,0.0,0.0,0.0
1664547916419,-0.109375,-0.22265625,0.9824219,0.125,-0.625,0.0625,0.0,0.0,0.0
1664547916449,-0.10253906,-0.22070312,0.9921875,0.125,-0.25,0.09375,-23.6875,-50.5,-64.375
1664547916509,-0.09667969,-0.22949219,0.9863281,-0.125,-0.21875,0.0625,0.0,0.0,0.0
1664547916537,-0.10449219,-0.21875,0.99121094,0.125,-0.03125,0.0,0.0,0.0,0.0
1664547916567,-0.091796875,-0.22070312,0.9921875,0.1875,-0.09375,0.09375,0.0,0.0,0.0
1664547916627,-0.09765625,-0.22167969,1.0009766,0.25,-0.15625,0.0625,0.0,0.0,0.0
1664547916660,-0.10253906,-0.2265625,0.98828125,0.125,-0.15625,0.21875,0.0,0.0,0.0
1664547916688,-0.10058594,-0.23144531,0.9921875,0.125,-0.3125,0.0,0.0,0.0,0.0
1664547916747,-0.10058594,-0.22460938,0.99121094,0.0,-0.09375,-0.0625,0.0,0.0,0.0
1664547916780,-0.109375,-0.21972656,0.984375,0.0625,0.03125,0.0625,0.0,0.0,0.0
1664547916811,-0.10058594,-0.21484375,0.9921875,0.25,-0.25,0.0625,0.0,0.0,0.0
1664547916869,-0.10253906,-0.22265625,1.0009766,0.0,-0.25,-0.125,0.0,0.0,0.0
1664547916898,-0.10449219,-0.22265625,0.9892578,0.5,-0.3125,0.09375,0.0,0.0,0.0
1664547916927,-0.103515625,-0.2265625,0.98046875,-0.0625,0.53125,0.09375,-24.4375,-50.8125,-64.6875
1664547916990,-0.10546875,-0.22070312,0.9902344,0.1875,0.15625,0.0625,0.0,0.0,0.0
1664547917018,-0.10644531,-0.23046875,0.9873047,0.3125,-0.03125,0.09375,0.0,0.0,0.0
1664547917050,-0.11035156,-0.23339844,0.9902344,0.375,-0.25,0.15625,0.0,0.0,0.0
1664547917110,-0.10449219,-0.22070312,0.99121094,0.0625,-0.375,-0.0625,0.0,0.0,0.0
1664547917138,-0.10058594,-0.23046875,0.98535156,0.125,-0.3125,-0.1875,0.0,0.0,0.0
1664547917168,-0.1015625,-0.22949219,0.9863281,0.0625,-0.09375,-0.1875,0.0,0.0,0.0
1664547917229,-0.10546875,-0.22558594,0.9921875,0.0,0.03125,-0.1875,0.0,0.0,0.0
1664547917258,-0.09765625,-0.22753906,0.98339844,0.1875,-0.21875,-0.125,0.0,0.0,0.0
1664547917287,-0.10253906,-0.22265625,0.9765625,0.25,-0.15625,0.0625,0.0,0.0,0.0
1664547917350,-0.099609375,-0.22460938,0.9863281,0.25,-0.3125,-0.0625,0.0,0.0,0.0
1664547917382,-0.10546875,-0.22460938,0.984375,0.3125,-0.15625,0.09375,0.0,0.0,0.0
1664547917438,-0.10839844,-0.22460938,0.9941406,0.3125,-0.09375,-0.0625,0.0,0.0,0.0
1664547917468,-0.11425781,-0.22070312,0.9892578,0.125,-0.15625,0.0625,-24.0,-49.75,-66.0625
1664547917498,-0.10058594,-0.22460938,0.98339844,0.3125,-0.25,0.0625,0.0,0.0,0.0
1664547917527,-0.09765625,-0.22167969,0.98828125,0.125,-0.3125,-0.125,0.0,0.0,0.0
1664547917588,-0.09765625,-0.22265625,0.9892578,0.3125,-0.03125,-0.125,0.0,0.0,0.0
1664547917617,-0.10058594,-0.21875,1.0039062,-0.1875,0.34375,0.0,0.0,0.0,0.0
1664547917646,-0.095703125,-0.22851562,0.984375,0.125,-0.09375,0.0625,0.0,0.0,0.0
1664547917708,-0.10839844,-0.22851562,0.9902344,0.125,-0.375,-0.0625,0.0,0.0,0.0
1664547917743,-0.103515625,-0.23144531,0.9921875,0.125,-0.3125,-0.1875,0.0,0.0,0.0
1664547917767,-0.10058594,-0.23144531,0.97753906,0.125,-0.375,0.0625,0.0,0.0,0.0
1664547917826,-0.10644531,-0.22753906,0.9941406,0.125,-0.09375,-0.1875,0.0,0.0,0.0
1664547917860,-0.107421875,-0.22753906,0.99609375,0.0,-0.09375,0.09375,0.0,0.0,0.0
1664547917887,-0.103515625,-0.22167969,0.97558594,0.0,-0.03125,0.0,0.0,0.0,0.0
1664547917948,-0.09082031,-0.23144531,0.98339844,0.375,-0.25,0.09375,-24.875,-50.0625,-66.1875
1664547917979,-0.103515625,-0.23242188,0.9941406,0.1875,-0.15625,0.0625,0.0,0.0,0.0
1664547918010,-0.10058594,-0.21386719,0.9785156,0.0625,-0.09375,0.0,0.0,0.0,0.0
1664547918066,-0.103515625,-0.22363281,0.99121094,0.25,-0.09375,0.0,0.0,0.0,0.0
1664547918097,-0.107421875,-0.21972656,0.99316406,0.0625,0.03125,0.0625,0.0,0.0,0.0
1664547918128,-0.109375,-0.22265625,0.9873047,0.125,-0.15625,0.0,0.0,0.0,0.0
1664547918188,-0.111328125,-0.22265625,0.9892578,0.0625,-0.03125,0.15625,0.0,0.0,0.0
1664547918217,-0.103515625,-0.22460938,0.9921875,0.125,-0.15625,0.0625,0.0,0.0,0.0
1664547918250,-0.10253906,-0.22851562,0.99316406,0.1875,-0.375,0.0,0.0,0.0,0.0
1664547918309,-0.099609375,-0.23535156,0.9921875,0.25,-0.15625,0.0,0.0,0.0,0.0
1664547918337,-0.1015625,-0.23144531,0.99609375,-0.25,0.46875,0.0625,0.0,0.0,0.0
1664547918369,-0.11425781,-0.22070312,0.9873047,0.1875,0.09375,0.15625,0.0,0.0,0.0
1664547918430,-0.107421875,-0.2265625,0.99316406,0.1875,-0.09375,0.0625,0.0,0.0,0.0
1664547918460,-0.1015625,-0.21679688,0.9873047,0.1875,-0.25,-0.0625,-24.0,-50.8125,-66.0625
1664547918488,-0.119140625,-0.24023438,0.9794922,0.4375,-0.375,0.15625,0.0,0.0,0.0
1664547918549,-0.09863281,-0.20605469,0.98828125,0.0625,-0.15625,-0.0625,0.0,0.0,0.0
1664547918579,-0.107421875,-0.22363281,0.9970703,0.0625,-0.25,-0.0625,0.0,0.0,0.0
1664547918608,-0.10253906,-0.22070312,1.0048828,0.25,-0.3125,0.0625,0.0,0.0,0.0
1664547918671,-0.107421875,-0.22363281,0.9980469,0.1875,-0.25,0.15625,0.0,0.0,0.0
1664547918699,-0.11230469,-0.23242188,0.98828125,0.375,-0.03125,0.15625,0.0,0.0,0.0
1664547918726,-0.10253906,-0.21582031,0.9902344,0.1875,-0.03125,0.09375,0.0,0.0,0.0
1664547918833,-0.09863281,-0.22070312,0.9873047,0.125,-0.15625,0.0625,0.0,0.0,0.0
1664547918863,-0.109375,-0.22753906,0.9980469,0.25,-0.21875,0.09375,0.0,0.0,0.0
1664547918906,-0.10253906,-0.22558594,0.9970703,0.0625,-0.09375,0.09375,0.0,0.0,0.0
1664547918960,-0.103515625,-0.22363281,0.9814453,0.1875,0.15625,0.0625,0.0,0.0,0.0
1664547918971,-0.103515625,-0.22558594,0.9707031,0.125,-0.09375,0.0625,-23.875,-50.375,-65.875
1664547918986,-0.103515625,-0.22070312,0.9873047,0.1875,0.09375,0.15625,0.0,0.0,0.0
1664547919051,-0.10839844,-0.22753906,0.9746094,0.625,-0.5625,0.09375,0.0,0.0,0.0
1664547919081,-0.09765625,-0.23046875,0.9794922,-0.71875,0.59375,0.09375,0.0,0.0,0.0
1664547919104,-0.099609375,-0.22070312,0.97265625,0.125,0.40625,0.21875,0.0,0.0,0.0
1664547919145,-0.10253906,-0.21386719,0.9716797,0.1875,0.09375,0.15625,0.0,0.0,0.0
1664547919176,-0.09863281,-0.21777344,0.9873047,-0.0625,-0.25,0.0,0.0,0.0,0.0
1664547919231,-0.09863281,-0.22363281,0.9951172,0.5,-0.25,0.09375,0.0,0.0,0.0
1664547919310,-0.10644531,-0.22363281,1.0,-0.125,-0.3125,0.0625,0.0,0.0,0.0
1664547919343,-0.109375,-0.22851562,0.99902344,0.1875,0.15625,0.0625,0.0,0.0,0.0
1664547919372,-0.109375,-0.21777344,1.0009766,-0.25,-0.09375,0.0625,0.0,0.0,0.0
1664547919432,-0.107421875,-0.22167969,0.9902344,0.25,-0.3125,0.0625,0.0,0.0,0.0
1664547919443,-0.10449219,-0.22070312,1.0,-0.03125,-0.0625,0.03125,0.0,0.0,0.0
1664547919469,-0.10253906,-0.21875,0.9873047,-0.03125,0.125,0.0625,-24.625,-50.6875,-65.875
1664547919532,-0.099609375,-0.23046875,0.9902344,-0.03125,0.0,-0.09375,0.0,0.0,0.0
1664547919547,-0.10839844,-0.2265625,0.9921875,0.03125,-0.0625,-0.09375,0.0,0.0,0.0
1664547919585,-0.10546875,-0.22265625,0.9892578,0.03125,0.0,-0.09375,0.0,0.0,0.0
1664547919628,-0.10253906,-0.22167969,0.9873047,-0.03125,0.0,-0.09375,0.0,0.0,0.0
1664547919657,-0.11230469,-0.22753906,0.98828125,-0.21875,-0.0625,-0.09375,0.0,0.0,0.0
1664547919726,-0.109375,-0.22363281,0.9902344,0.28125,-0.3125,-0.15625,0.0,0.0,0.0
1664547919746,-0.107421875,-0.22363281,0.96777344,0.15625,0.25,-0.09375,0.0,0.0,0.0
1664547919791,-0.099609375,-0.21191406,0.99316406,-0.03125,0.3125,0.0625,0.0,0.0,0.0
1664547919818,-0.111328125,-0.22558594,0.9824219,0.15625,-0.1875,-0.09375,0.0,0.0,0.0
1664547919867,-0.107421875,-0.22753906,0.9892578,-0.09375,0.0,-0.03125,0.0,0.0,0.0
1664547919904,-0.10058594,-0.21875,0.9902344,0.46875,-0.3125,-0.09375,0.0,0.0,0.0
1664547919927,-0.107421875,-0.21972656,1.0029297,-0.21875,-0.0625,0.03125,-24.625,-50.375,-65.625
1664547920006,-0.10644531,-0.2265625,0.9863281,0.09375,0.0625,-0.15625,0.0,0.0,0.0
1664547920035,-0.099609375,-0.22070312,0.98339844,-0.09375,-0.125,-0.09375,0.0,0.0,0.0
1664547920068,-0.10058594,-0.22558594,0.98828125,0.03125,-0.0625,0.03125,0.0,0.0,0.0
1664547920117,-0.10449219,-0.23046875,0.98828125,0.09375,-0.0625,0.03125,0.0,0.0,0.0
1664547920157,-0.103515625,-0.22070312,0.97558594,0.09375,-0.0625,-0.15625,0.0,0.0,0.0
1664547920183,-0.099609375,-0.22558594,0.9863281,0.03125,-0.0625,-0.03125,0.0,0.0,0.0
1664547920238,-0.103515625,-0.21582031,0.99121094,0.09375,0.0,-0.09375,0.0,0.0,0.0
1664547920258,-0.10546875,-0.22363281,0.98535156,-0.03125,0.0,-0.03125,0.0,0.0,0.0
1664547920299,-0.1015625,-0.22460938,0.9892578,0.03125,0.125,-0.09375,0.0,0.0,0.0
1664547920355,-0.10644531,-0.21972656,0.98535156,-0.03125,0.0625,-0.21875,0.0,0.0,0.0
1664547920382,-0.09667969,-0.22558594,1.0009766,-0.03125,-0.125,-0.15625,0.0,0.0,0.0
1664547920441,-0.10546875,-0.22558594,1.0,0.15625,0.0625,-0.15625,0.0,0.0,0.0
1664547920513,-0.09863281,-0.22070312,0.9785156,-0.34375,0.65625,-0.09375,-24.875,-50.6875,-65.875
1664547920531,-0.1015625,-0.21972656,1.0048828,-0.03125,0.0625,0.0625,0.0,0.0,0.0
1664547920567,-0.10058594,-0.22070312,0.984375,-0.34375,0.65625,-0.09375,0.0,0.0,0.0
1664547920622,-0.103515625,-0.22949219,0.99902344,0.09375,-0.3125,-0.15625,0.0,0.0,0.0
1664547920641,-0.10449219,-0.23339844,0.99121094,-0.09375,-0.1875,-0.21875,0.0,0.0,0.0
1664547920657,-0.09765625,-0.21972656,0.9785156,-0.03125,-0.25,-0.28125,0.0,0.0,0.0
1664547920727,-0.109375,-0.22167969,0.9814453,0.03125,0.1875,-0.21875,0.0,0.0,0.0
1664547920769,-0.09863281,-0.21679688,0.9667969,0.03125,0.0,-0.15625,0.0,0.0,0.0
1664547920784,-0.09765625,-0.22851562,0.9814453,0.03125,-0.125,-0.28125,0.0,0.0,0.0
1664547920829,-0.10253906,-0.21972656,0.9814453,-0.03125,0.0,-0.03125,0.0,0.0,0.0
1664547920865,-0.1015625,-0.22265625,0.9892578,-0.03125,0.0,-0.03125,0.0,0.0,0.0
1664547920906,-0.09863281,-0.22363281,0.984375,-0.15625,-0.1875,-0.09375,0.0,0.0,0.0
1664547921002,-0.09765625,-0.22167969,0.9921875,-0.15625,0.125,-0.03125,-24.4375,-50.5,-66.375
1664547921005,-0.10644531,-0.22363281,1.0029297,-0.03125,-0.125,-0.03125,0.0,0.0,0.0
1664547921014,-0.099609375,-0.21972656,0.9863281,-0.15625,-0.0625,-0.03125,0.0,0.0,0.0
1664547921099,-0.10644531,-0.21875,0.9951172,-0.03125,-0.125,-0.21875,0.0,0.0,0.0
1664547921118,-0.103515625,-0.22558594,0.9794922,0.21875,0.125,-0.03125,0.0,0.0,0.0
1664547921144,-0.09375,-0.21875,0.9941406,-0.15625,0.53125,0.03125,0.0,0.0,0.0
1664547921187,-0.10449219,-0.22167969,0.9824219,-0.375,0.1875,0.0625,0.0,0.0,0.0
1664547921217,-0.10546875,-0.21679688,1.0068359,-0.15625,0.125,-0.03125,0.0,0.0,0.0
1664547921267,-0.10253906,-0.22558594,0.9921875,0.53125,-0.4375,-0.34375,0.0,0.0,0.0
1664547921331,-0.103515625,-0.21582031,0.98535156,-0.28125,0.0,-0.15625,0.0,0.0,0.0
1664547921351,-0.10058594,-0.23046875,1.0,0.09375,0.0,-0.03125,0.0,0.0,0.0
1664547921385,-0.10644531,-0.22070312,0.9814453,-0.09375,0.3125,-0.15625,0.0,0.0,0.0
1664547921463,-0.10449219,-0.22167969,0.9941406,0.21875,0.0625,-0.15625,0.0,0.0,0.0
1664547921496,-0.107421875,-0.23242188,0.99121094,-0.03125,-0.125,0.03125,-24.75,-50.8125,-66.375
1664547921543,-0.09375,-0.23339844,0.9921875,0.15625,0.0,-0.09375,0.0,0.0,0.0
1664547921600,-0.10644531,-0.22265625,0.99902344,-0.03125,0.0625,-0.03125,0.0,0.0,0.0
1664547921629,-0.09863281,-0.22265625,0.98535156,-0.09375,0.0625,-0.09375,0.0,0.0,0.0
1664547921667,-0.099609375,-0.22265625,0.98535156,-0.03125,0.0,0.03125,0.0,0.0,0.0
1664547921712,-0.10839844,-0.22460938,1.0078125,0.03125,-0.1875,0.03125,0.0,0.0,0.0
1664547921735,-0.09667969,-0.22167969,0.9824219,-0.09375,-0.0625,-0.03125,0.0,0.0,0.0
1664547921776,-0.10253906,-0.22460938,0.98828125,0.21875,-0.1875,-0.03125,0.0,0.0,0.0
1664547921833,-0.103515625,-0.23144531,0.98535156,-0.34375,0.65625,-0.03125,0.0,0.0,0.0
1664547921886,-0.10546875,-0.21386719,0.98828125,-0.15625,0.25,-0.09375,0.0,0.0,0.0
1664547921914,-0.10058594,-0.22460938,0.984375,0.03125,0.25,-0.09375,0.0,0.0,0.0
1664547921958,-0.11230469,-0.22167969,0.97558594,-0.03125,-0.125,-0.15625,0.0,0.0,0.0
1664547922025,-0.11035156,-0.23046875,0.98535156,-0.03125,-0.0625,-0.03125,-23.375,-51.25,-67.125
1664547922026,-0.10644531,-0.22460938,0.9951172,-0.09375,-0.1875,-0.28125,0.0,0.0,0.0
1664547922033,-0.09765625,-0.22363281,0.9736328,-0.15625,0.0625,-0.15625,0.0,0.0,0.0
1664547922075,-0.11230469,-0.23046875,0.9921875,0.03125,-0.0625,-0.15625,0.0,0.0,0.0
1664547922108,-0.11230469,-0.22167969,0.98535156,0.15625,0.125,-0.15625,0.0,0.0,0.0
1664547922158,-0.107421875,-0.23046875,0.9951172,0.28125,0.0625,-0.21875,0.0,0.0,0.0
1664547922196,-0.10449219,-0.22167969,0.98339844,0.09375,0.0625,-0.15625,0.0,0.0,0.0
1664547922222,-0.103515625,-0.22363281,0.9863281,-0.03125,-0.0625,-0.28125,0.0,0.0,0.0
1664547922277,-0.111328125,-0.21777344,0.9736328,0.09375,0.25,-0.21875,0.0,0.0,0.0
1664547922297,-0.10644531,-0.22460938,1.0117188,0.15625,-0.0625,-0.28125,0.0,0.0,0.0
1664547922333,-0.10058594,-0.22363281,0.98046875,-0.03125,0.0,-0.28125,0.0,0.0,0.0
1664547922397,-0.099609375,-0.22851562,0.9746094,0.21875,-0.375,-0.21875,0.0,0.0,0.0
1664547922428,-0.10449219,-0.23144531,0.99121094,-0.34375,0.65625,0.03125,0.0,0.0,0.0
1664547922463,-0.10546875,-0.22167969,0.9824219,-0.15625,0.0625,-0.09375,-24.4375,-50.1875,-66.8125
1664547922513,-0.091796875,-0.21777344,0.9921875,0.15625,0.1875,-0.03125,0.0,0.0,0.0
1664547922543,-0.10058594,-0.22460938,0.98535156,-0.03125,-0.25,-0.09375,0.0,0.0,0.0
1664547922566,-0.09863281,-0.22265625,0.9902344,0.03125,-0.1875,-0.34375,0.0,0.0,0.0
1664547922647,-0.099609375,-0.22949219,1.0,-0.09375,-0.1875,-0.21875,0.0,0.0,0.0
1664547922673,-0.109375,-0.21582031,0.9941406,0.03125,0.1875,-0.21875,0.0,0.0,0.0
1664547922687,-0.1015625,-0.22460938,1.0068359,-0.03125,-0.0625,-0.21875,0.0,0.0,0.0
1664547922771,-0.10058594,-0.22558594,0.99609375,0.03125,-0.1875,-0.09375,0.0,0.0,0.0
1664547922790,-0.10644531,-0.22167969,0.9970703,0.21875,-0.125,-0.09375,0.0,0.0,0.0
1664547922807,-0.095703125,-0.22070312,0.99609375,-0.03125,-0.0625,0.03125,0.0,0.0,0.0
1664547922870,-0.107421875,-0.22363281,0.9980469,-0.09375,0.0625,-0.15625,0.0,0.0,0.0
1664547922895,-0.10546875,-0.22265625,0.98046875,0.03125,0.0625,-0.09375,0.0,0.0,0.0
1664547922927,-0.099609375,-0.22363281,1.0019531,-0.03125,0.125,-0.09375,-23.6875,-49.1875,-66.0625
1664547922994,-0.11230469,-0.22070312,0.98339844,-0.15625,-0.0625,-0.09375,0.0,0.0,0.0
1664547923039,-0.10058594,-0.22460938,0.9921875,0.03125,0.0625,-0.15625,0.0,0.0,0.0
1664547923053,-0.10058594,-0.22460938,1.0019531,0.21875,-0.125,-0.21875,0.0,0.0,0.0
1664547923106,-0.107421875,-0.22851562,0.9902344,-0.28125,0.65625,-0.09375,0.0,0.0,0.0
1664547923146,-0.10839844,-0.22070312,0.98535156,-0.21875,0.1875,-0.09375,0.0,0.0,0.0
1664547923166,-0.10644531,-0.21875,0.99609375,0.28125,0.125,-0.15625,0.0,0.0,0.0
1664547923225,-0.10253906,-0.22265625,0.97265625,-0.03125,-0.125,-0.09375,0.0,0.0,0.0
1664547923269,-0.10253906,-0.22753906,0.99609375,0.15625,-0.125,-0.28125,0.0,0.0,0.0
1664547923291,-0.10839844,-0.22265625,0.99902344,-0.15625,0.0,-0.28125,0.0,0.0,0.0
1664547923379,-0.10644531,-0.22949219,0.9824219,0.0,0.0,-0.125,0.0,0.0,0.0
1664547923409,-0.09375,-0.21289062,0.98046875,0.125,-0.03125,0.0,0.0,0.0,0.0
1664547923454,-0.09863281,-0.22460938,0.9980469,0.125,-0.09375,0.0625,0.0,0.0,0.0
1664547923516,-0.10546875,-0.22558594,0.98828125,0.0,0.0,0.1875,-24.625,-50.6875,-65.875
1664547923544,-0.1015625,-0.22460938,0.9941406,0.0,0.0625,0.0625,0.0,0.0,0.0
1664547923579,-0.111328125,-0.21582031,0.9873047,0.0,0.0625,0.0,0.0,0.0,0.0
1664547923633,-0.10644531,-0.22753906,0.9941406,0.1875,0.125,0.125,0.0,0.0,0.0
1664547923646,-0.10546875,-0.21875,0.97753906,0.0,0.0625,0.125,0.0,0.0,0.0
1664547923673,-0.10253906,-0.22753906,0.9824219,0.0,0.0,0.0,0.0,0.0,0.0
1664547923722,-0.10058594,-0.22558594,0.9873047,0.0,-0.21875,0.0625,0.0,0.0,0.0
1664547923742,-0.10253906,-0.23339844,0.9892578,-0.0625,0.625,0.125,0.0,0.0,0.0
1664547923771,-0.107421875,-0.22265625,0.9794922,-0.375,0.375,0.0625,0.0,0.0,0.0
1664547923828,-0.10644531,-0.21972656,0.9892578,0.0625,0.0625,0.125,0.0,0.0,0.0
1664547923864,-0.10644531,-0.22460938,0.98339844,-0.0625,-0.09375,0.0625,0.0,0.0,0.0
1664547923891,-0.10644531,-0.2265625,0.99316406,0.0,-0.09375,0.0,0.0,0.0,0.0
1664547923958,-0.111328125,-0.21289062,0.9892578,-0.1875,-0.03125,-0.125,-25.0625,-49.4375,-66.375
1664547923992,-0.10253906,-0.21875,0.99902344,0.0,0.0625,-0.125,0.0,0.0,0.0
1664547924016,-0.10644531,-0.21582031,0.9824219,-0.0625,-0.09375,0.0,0.0,0.0,0.0
1664547924067,-0.111328125,-0.22363281,0.98828125,0.0,-0.21875,0.125,0.0,0.0,0.0
1664547924110,-0.1015625,-0.21875,1.0009766,-0.0625,-0.03125,0.0625,0.0,0.0,0.0
1664547924135,-0.09667969,-0.22363281,0.98339844,-0.0625,0.125,0.125,0.0,0.0,0.0
1664547924193,-0.10253906,-0.21777344,0.9902344,-0.125,-0.15625,0.25,0.0,0.0,0.0
1664547924225,-0.10253906,-0.21875,0.9921875,0.0,0.125,0.1875,0.0,0.0,0.0
1664547924277,-0.109375,-0.21582031,0.99121094,-0.125,-0.21875,0.125,0.0,0.0,0.0
1664547924315,-0.10058594,-0.22460938,1.0029297,-0.0625,-0.15625,0.0,0.0,0.0,0.0
1664547924340,-0.10644531,-0.22558594,0.9873047,-0.0625,-0.21875,0.0,0.0,0.0,0.0
1664547924379,-0.10644531,-0.22265625,0.9824219,0.1875,0.0,0.0625,0.0,0.0,0.0
1664547924447,-0.09765625,-0.22949219,0.97753906,-0.625,0.5,0.0625,0.0,0.0,0.0
1664547924491,-0.099609375,-0.22558594,0.98828125,0.0,0.125,0.0625,-25.9375,-49.3125,-68.0
1664547924512,-0.09863281,-0.22265625,0.9873047,-0.0625,-0.09375,0.125,0.0,0.0,0.0
1664547924563,-0.09277344,-0.22363281,0.99121094,0.1875,-0.15625,0.0625,0.0,0.0,0.0
1664547924577,-0.10546875,-0.22265625,0.9970703,0.0,-0.21875,0.0625,0.0,0.0,0.0
1664547924619,-0.10546875,-0.21972656,0.99902344,0.0,0.0625,-0.0625,0.0,0.0,0.0
1664547924672,-0.103515625,-0.21777344,0.9970703,-0.125,-0.15625,-0.0625,0.0,0.0,0.0
1664547924699,-0.10546875,-0.22070312,0.9921875,-0.0625,-0.03125,0.0625,0.0,0.0,0.0
1664547924741,-0.095703125,-0.21875,0.98046875,0.0,-0.09375,0.0625,0.0,0.0,0.0
1664547924810,-0.10546875,-0.22558594,0.9970703,-0.125,-0.09375,0.0,0.0,0.0,0.0
1664547924838,-0.099609375,-0.22167969,0.9785156,-0.0625,-0.09375,0.0625,0.0,0.0,0.0
1664547924858,-0.10449219,-0.22460938,0.9892578,0.0,0.0,-0.0625,0.0,0.0,0.0
1664547924916,-0.095703125,-0.22070312,0.9941406,0.0625,0.0625,0.1875,0.0,0.0,0.0
1664547924954,-0.107421875,-0.21972656,0.9941406,0.0625,0.0,0.0625,-24.875,-48.875,-65.875
1664547924988,-0.10839844,-0.23046875,0.9921875,-0.1875,-0.03125,-0.0625,0.0,0.0,0.0
1664547925035,-0.10058594,-0.23144531,0.9921875,0.375,-0.15625,0.0,0.0,0.0,0.0
1664547925067,-0.095703125,-0.22363281,0.9785156,-0.5625,0.5,0.0,0.0,0.0,0.0
1664547925089,-0.109375,-0.22265625,0.98535156,0.0625,0.25,0.125,0.0,0.0,0.0
1664547925162,-0.09863281,-0.21972656,0.9941406,-0.0625,0.0625,0.1875,0.0,0.0,0.0
1664547925194,-0.103515625,-0.22363281,0.9941406,-0.0625,-0.15625,0.0625,0.0,0.0,0.0
1664547925216,-0.10058594,-0.22851562,0.9863281,-0.125,-0.15625,0.0625,0.0,0.0,0.0
1664547925266,-0.107421875,-0.21972656,0.9892578,-0.0625,-0.09375,-0.125,0.0,0.0,0.0
1664547925305,-0.11328125,-0.21972656,0.9902344,-0.3125,-0.15625,-0.25,0.0,0.0,0.0
1664547925339,-0.10449219,-0.23046875,0.97558594,0.125,-0.15625,-0.3125,0.0,0.0,0.0
1664547925393,-0.10546875,-0.23046875,0.99609375,-0.125,-0.03125,0.125,0.0,0.0,0.0
1664547925424,-0.10253906,-0.22558594,0.9863281,-0.1875,-0.03125,-0.0625,0.0,0.0,0.0
1664547925446,-0.103515625,-0.22070312,0.99902344,-0.0625,-0.09375,0.0625,-24.4375,-50.5,-64.6875
1664547925507,-0.099609375,-0.21289062,0.9814453,0.1875,-0.15625,0.0625,0.0,0.0,0.0
1664547925540,-0.10253906,-0.22070312,0.9824219,0.0,-0.09375,0.125,0.0,0.0,0.0
1664547925566,-0.111328125,-0.22167969,1.0019531,0.0,-0.03125,0.125,0.0,0.0,0.0
1664547925627,-0.10644531,-0.22460938,0.99609375,-0.125,0.0,-0.125,0.0,0.0,0.0
1664547925664,-0.09667969,-0.21386719,0.9785156,-0.0625,0.125,0.0,0.0,0.0,0.0
1664547925702,-0.10253906,-0.234375,0.97558594,0.0625,-0.15625,0.0625,0.0,0.0,0.0
1664547925769,-0.09765625,-0.22167969,0.9921875,-0.0625,0.5625,0.0625,0.0,0.0,0.0
1664547925788,-0.11230469,-0.23046875,0.98339844,-0.5,0.5625,0.3125,0.0,0.0,0.0
1664547925810,-0.10546875,-0.21289062,0.9814453,0.0,0.25,0.125,0.0,0.0,0.0
1664547925872,-0.103515625,-0.22558594,0.98828125,0.125,0.0,0.125,0.0,0.0,0.0
1664547925907,-0.10644531,-0.22753906,0.98046875,-0.0625,-0.15625,0.1875,0.0,0.0,0.0
1664547925934,-0.09863281,-0.21875,0.9814453,-0.0625,-0.28125,0.0,-24.875,-50.6875,-65.875
1664547925997,-0.1015625,-0.22265625,0.9863281,-0.09375,0.34375,0.0625,0.0,0.0,0.0
1664547926021,-0.103515625,-0.21777344,0.98535156,-0.03125,0.21875,0.125,0.0,0.0,0.0
1664547926050,-0.10546875,-0.22949219,0.984375,-0.03125,0.34375,0.25,0.0,0.0,0.0
1664547926116,-0.091796875,-0.22558594,0.9765625,-0.15625,-0.3125,0.1875,0.0,0.0,0.0
1664547926148,-0.10253906,-0.2265625,0.99609375,0.71875,-0.5625,0.0625,0.0,0.0,0.0
1664547926175,-0.109375,-0.23535156,0.98046875,-0.875,0.78125,-0.1875,0.0,0.0,0.0
1664547926241,-0.12011719,-0.23242188,0.99609375,-0.8125,0.65625,-0.375,0.0,0.0,0.0
1664547926261,-0.11230469,-0.21679688,0.9785156,-0.15625,-0.3125,-0.125,0.0,0.0,0.0
1664547926299,-0.10546875,-0.23144531,0.984375,0.84375,-0.5,0.25,0.0,0.0,0.0
1664547926351,-0.10253906,-0.22460938,0.99609375,0.46875,-0.5,0.375,0.0,0.0,0.0
1664547926401,-0.087890625,-0.2265625,0.99902344,0.59375,-0.25,0.3125,0.0,0.0,0.0
1664547926446,-0.09863281,-0.22070312,0.9863281,-0.3125,0.53125,0.0,0.0,0.0,0.0
1664547926489,-0.099609375,-0.21875,0.99316406,0.03125,0.09375,0.0,-25.5,-50.5,-65.4375
1664547926510,-0.09765625,-0.21679688,0.9794922,-0.15625,0.21875,-0.1875,0.0,0.0,0.0
1664547926568,-0.11230469,-0.21972656,0.9873047,-0.375,-0.1875,-0.1875,0.0,0.0,0.0
1664547926587,-0.09765625,-0.22070312,0.98828125,-0.25,-0.1875,-0.1875,0.0,0.0,0.0
1664547926624,-0.11035156,-0.234375,1.0039062,-0.25,0.15625,-0.125,0.0,0.0,0.0
1664547926646,-0.10644531,-0.23144531,0.9794922,-0.5,0.46875,0.0,0.0,0.0,0.0
1664547926705,-0.09667969,-0.22070312,0.9873047,-0.03125,0.28125,0.3125,0.0,0.0,0.0
1664547926742,-0.11230469,-0.22265625,0.9794922,0.15625,-0.1875,0.5625,0.0,0.0,0.0
1664547926766,-0.109375,-0.21484375,0.99121094,0.21875,-1.1875,0.25,0.0,0.0,0.0
1664547926854,-0.109375,-0.21875,0.99316406,2.59375,-2.28125,0.0,0.0,0.0,0.0
1664547926885,-0.095703125,-0.21386719,1.0009766,0.40625,-0.8125,0.8125,0.0,0.0,0.0
1664547926911,-0.111328125,-0.21875,0.99316406,-0.625,-0.875,0.875,0.0,0.0,0.0
1664547926968,-0.10058594,-0.22460938,0.98339844,0.46875,-0.75,0.90625,-24.4375,-49.75,-66.375
1664547926985,-0.10546875,-0.21679688,1.0029297,0.28125,-0.875,0.96875,0.0,0.0,0.0
1664547927006,-0.099609375,-0.22363281,0.9873047,-0.03125,-1.125,0.96875,0.0,0.0,0.0
1664547927067,-0.09082031,-0.22070312,0.9873047,0.09375,-0.625,1.21875,0.0,0.0,0.0
1664547927098,-0.09277344,-0.22460938,0.9970703,-0.5,0.46875,1.59375,0.0,0.0,0.0
1664547927142,-0.10449219,-0.21191406,0.96875,-0.09375,-0.125,1.65625,0.0,0.0,0.0
1664547927222,-0.109375,-0.22460938,0.9794922,-0.1875,-0.125,1.34375,0.0,0.0,0.0
1664547927265,-0.09765625,-0.22753906,1.0029297,-0.3125,-0.3125,0.96875,0.0,0.0,0.0
1664547927288,-0.099609375,-0.22460938,0.98535156,0.15625,-0.4375,0.875,0.0,0.0,0.0
1664547927382,-0.103515625,-0.22558594,0.9980469,-0.15625,-0.25,0.96875,0.0,0.0,0.0
1664547927424,-0.10058594,-0.23632812,0.9951172,-0.25,0.0625,0.375,0.0,0.0,0.0
1664547927476,-0.10644531,-0.22851562,0.98535156,-0.15625,-0.0625,0.1875,0.0,0.0,0.0
1664547927534,-0.09472656,-0.22753906,0.9921875,0.09375,0.0,0.0625,0.0,0.0,0.0
1664547927555,-0.087890625,-0.22949219,0.984375,0.09375,0.09375,-0.1875,-23.5625,-50.375,-65.125
1664547927604,-0.10253906,-0.22265625,0.9941406,0.21875,-0.0625,-0.46875,0.0,0.0,0.0
1664547927686,-0.10058594,-0.22949219,0.9980469,0.28125,0.09375,-0.53125,0.0,0.0,0.0
1664547927710,-0.103515625,-0.21972656,0.99902344,0.28125,0.09375,-0.71875,0.0,0.0,0.0
1664547927728,-0.10546875,-0.22167969,0.98535156,0.21875,0.21875,-0.78125,0.0,0.0,0.0
1664547927793,-0.09863281,-0.22363281,0.99121094,0.34375,0.0,-0.78125,0.0,0.0,0.0
1664547927830,-0.111328125,-0.22851562,0.9921875,0.40625,0.09375,-0.71875,0.0,0.0,0.0
1664547927844,-0.1015625,-0.2265625,0.9873047,-0.375,0.78125,-0.65625,0.0,0.0,0.0
1664547927894,-0.10449219,-0.22558594,0.9873047,-0.09375,0.34375,-0.78125,0.0,0.0,0.0
1664547927910,-0.10449219,-0.22363281,0.9902344,0.03125,0.15625,-0.53125,0.0,0.0,0.0
1664547927937,-0.09863281,-0.21875,0.99902344,0.15625,-0.25,-0.59375,0.0,0.0,0.0
1664547927978,-0.10546875,-0.22167969,0.9951172,0.28125,-0.4375,-0.59375,0.0,0.0,0.0
1664547928016,-0.10839844,-0.21875,0.9951172,0.15625,-0.3125,-0.59375,-24.125,-50.375,-65.625
1664547928032,-0.099609375,-0.22558594,0.9902344,0.09375,-0.1875,-0.4375,0.0,0.0,0.0
1664547928086,-0.09472656,-0.21191406,1.0019531,0.09375,-0.125,-0.25,0.0,0.0,0.0
1664547928108,-0.10546875,-0.22558594,0.9970703,-0.25,1.03125,-0.125,0.0,0.0,0.0
1664547928119,-0.11621094,-0.22070312,0.9892578,-0.3125,0.34375,-0.1875,0.0,0.0,0.0
1664547928173,-0.10839844,-0.22070312,0.9863281,0.28125,-0.1875,0.125,0.0,0.0,0.0
1664547928211,-0.10839844,-0.22363281,0.9970703,0.34375,-0.25,0.375,0.0,0.0,0.0
1664547928240,-0.09277344,-0.22070312,1.0097656,0.46875,-0.375,0.4375,0.0,0.0,0.0
1664547928276,-0.09765625,-0.22167969,0.9873047,-0.25,0.0625,0.625,0.0,0.0,0.0
1664547928310,-0.09765625,-0.22265625,0.99609375,0.40625,-0.375,0.375,0.0,0.0,0.0
1664547928328,-0.11035156,-0.2265625,0.9941406,0.15625,0.15625,0.1875,0.0,0.0,0.0
1664547928401,-0.11621094,-0.21875,0.99121094,-0.5625,0.0,0.1875,0.0,0.0,0.0
1664547928454,-0.109375,-0.21875,0.9921875,-0.15625,-0.0625,0.125,0.0,0.0,0.0
1664547928489,-0.11035156,-0.22558594,0.984375,-0.6875,0.09375,-0.125,-24.625,-49.3125,-65.625
1664547928508,-0.099609375,-0.23339844,0.9902344,-0.09375,-0.0625,-0.1875,0.0,0.0,0.0
1664547928541,-0.10253906,-0.22753906,0.98828125,-0.03125,-0.3125,0.125,0.0,0.0,0.0
1664547928566,-0.1015625,-0.21972656,0.98046875,0.03125,0.09375,-0.0625,0.0,0.0,0.0
1664547928658,-0.095703125,-0.21972656,0.9873047,0.03125,-0.125,0.0625,0.0,0.0,0.0
1664547928688,-0.103515625,-0.21875,0.9873047,0.28125,0.0625,0.0,0.0,0.0,0.0
1664547928718,-0.10546875,-0.21777344,1.0009766,0.09375,0.21875,-0.1875,0.0,0.0,0.0
1664547928754,-0.10449219,-0.22363281,0.9863281,0.15625,0.09375,-0.1875,0.0,0.0,0.0
1664547928783,-0.107421875,-0.21972656,1.015625,0.03125,0.09375,-0.1875,0.0,0.0,0.0
1664547928835,-0.099609375,-0.22363281,0.9873047,-0.15625,0.15625,-0.1875,0.0,0.0,0.0
1664547928870,-0.099609375,-0.2265625,0.9970703,0.03125,0.0625,-0.0625,0.0,0.0,0.0
1664547928901,-0.103515625,-0.21679688,0.97558594,0.15625,-0.0625,-0.0625,0.0,0.0,0.0
1664547928936,-0.1015625,-0.22949219,0.9921875,0.46875,0.34375,0.375,-24.4375,-50.8125,-67.125
1664547929001,-0.111328125,-0.22167969,0.9902344,-0.375,0.21875,0.1875,0.0,0.0,0.0
1664547929025,-0.09765625,-0.21582031,0.9921875,-0.03125,-0.25,-0.3125,0.0,0.0,0.0
1664547929053,-0.10449219,-0.21972656,1.0136719,0.09375,0.53125,-0.1875,0.0,0.0,0.0
1664547929119,-0.10449219,-0.22265625,0.99609375,-0.5625,0.15625,-0.25,0.0,0.0,0.0
1664547929139,-0.09863281,-0.22753906,0.98828125,-0.03125,-0.5625,-0.25,0.0,0.0,0.0
1664547929166,-0.10253906,-0.21972656,0.99121094,0.09375,-0.3125,-0.25,0.0,0.0,0.0
1664547929242,-0.10546875,-0.23828125,0.98828125,-0.25,0.0,-0.0625,0.0,0.0,0.0
1664547929274,-0.103515625,-0.22167969,0.97558594,0.09375,-0.3125,0.25,0.0,0.0,0.0
1664547929298,-0.09667969,-0.22949219,0.9892578,-0.03125,-0.0625,0.1875,0.0,0.0,0.0
1664547929355,-0.107421875,-0.22753906,0.97753906,-0.03125,-0.25,-0.3125,0.0,0.0,0.0
1664547929389,-0.10449219,-0.22460938,0.9863281,0.03125,-0.1875,-0.375,0.0,0.0,0.0
1664547929415,-0.103515625,-0.21972656,0.9863281,0.28125,-0.3125,0.0,0.0,0.0,0.0
1664547929466,-0.103515625,-0.21972656,0.9941406,0.46875,-0.4375,0.25,-25.8125,-50.8125,-66.375
1664547929504,-0.10449219,-0.22460938,0.98535156,0.21875,0.0,0.125,0.0,0.0,0.0
1664547929543,-0.09863281,-0.22070312,1.0029297,0.21875,-0.25,0.0,0.0,0.0,0.0
1664547929612,-0.10058594,-0.22167969,1.0068359,0.15625,0.28125,0.125,0.0,0.0,0.0
1664547929643,-0.09375,-0.21679688,0.9921875,0.34375,0.0625,-0.3125,0.0,0.0,0.0
1664547929650,-0.10839844,-0.22265625,0.98535156,-1.25,-0.0625,-0.125,0.0,0.0,0.0
1664547929714,-0.1015625,-0.21972656,0.99316406,0.09375,0.0,-0.25,0.0,0.0,0.0
1664547929756,-0.09765625,-0.22363281,1.0009766,-0.1875,-0.125,-0.1875,0.0,0.0,0.0
1664547929785,-0.1015625,-0.22460938,0.9863281,-0.375,-0.125,-0.0625,0.0,0.0,0.0
1664547929853,-0.10644531,-0.22558594,0.9814453,0.28125,0.0,-0.125,0.0,0.0,0.0
1664547929893,-0.107421875,-0.22753906,0.984375,0.09375,0.0625,0.0,0.0,0.0,0.0
1664547929918,-0.099609375,-0.22949219,0.9794922,-0.125,0.125,0.0,0.0,0.0,0.0
1664547929961,-0.10644531,-0.21875,0.9941406,0.0625,0.1875,-0.0625,-24.125,-51.4375,-65.125
1664547929976,-0.10058594,-0.22167969,0.9970703,0.125,0.25,-0.125,0.0,0.0,0.0
1664547930011,-0.10546875,-0.21484375,0.9736328,0.125,0.1875,-0.25,0.0,0.0,0.0
1664547930075,-0.09082031,-0.22460938,0.96972656,-0.0625,0.125,-0.375,0.0,0.0,0.0
1664547930096,-0.09667969,-0.22558594,0.98339844,0.0625,-0.0625,-0.0625,0.0,0.0,0.0
1664547930139,-0.099609375,-0.21679688,0.99316406,0.3125,-0.1875,-0.0625,0.0,0.0,0.0
1664547930197,-0.10839844,-0.23046875,0.9892578,0.1875,0.1875,0.0625,0.0,0.0,0.0
1664547930216,-0.10839844,-0.22363281,0.9892578,-0.21875,0.25,0.0,0.0,0.0,0.0
1664547930252,-0.10253906,-0.22070312,0.9863281,0.3125,0.125,-0.125,0.0,0.0,0.0
1664547930312,-0.115234375,-0.21875,0.9765625,0.0,0.125,-0.125,0.0,0.0,0.0
1664547930348,-0.11425781,-0.21972656,0.9951172,0.75,-0.4375,0.0625,0.0,0.0,0.0
1664547930370,-0.1015625,-0.22753906,0.9794922,-0.21875,-0.375,-0.0625,0.0,0.0,0.0
1664547930426,-0.10546875,-0.23046875,1.0029297,-0.28125,0.0625,-0.3125,0.0,0.0,0.0
1664547930459,-0.107421875,-0.23339844,0.99902344,-0.0625,0.1875,-0.0625,-23.6875,-51.25,-66.0625
1664547930493,-0.099609375,-0.2265625,0.9951172,0.0,-0.125,0.25,0.0,0.0,0.0
1664547930553,-0.10546875,-0.22460938,0.9873047,-0.28125,0.3125,0.125,0.0,0.0,0.0
1664547930578,-0.111328125,-0.22363281,0.9824219,-0.0625,-0.3125,-0.125,0.0,0.0,0.0
1664547930612,-0.10058594,-0.22558594,0.98339844,-0.0625,-0.375,-0.125,0.0,0.0,0.0
1664547930666,-0.10058594,-0.21679688,1.0068359,-0.53125,0.25,-0.1875,0.0,0.0,0.0
1664547930705,-0.10058594,-0.22167969,0.9892578,-0.1875,-0.125,-0.3125,0.0,0.0,0.0
1664547930743,-0.103515625,-0.22460938,0.9951172,0.3125,0.0625,-0.375,0.0,0.0,0.0
1664547930803,-0.10449219,-0.22460938,0.99121094,0.4375,0.1875,-0.0625,0.0,0.0,0.0
1664547930823,-0.10449219,-0.21484375,0.9921875,-0.21875,0.375,0.0625,0.0,0.0,0.0
1664547930853,-0.10839844,-0.21679688,0.99316406,0.0,0.375,0.0,0.0,0.0,0.0
1664547930908,-0.09472656,-0.22460938,0.99121094,-0.0625,0.125,0.0625,0.0,0.0,0.0
1664547930946,-0.10449219,-0.21777344,0.9921875,0.125,0.1875,0.1875,-24.4375,-50.8125,-65.0
1664547930998,-0.11328125,-0.22070312,1.0058594,0.375,-0.1875,0.125,0.0,0.0,0.0
1664547931044,-0.10449219,-0.22851562,0.9951172,-0.40625,0.125,-0.125,0.0,0.0,0.0
1664547931066,-0.10253906,-0.22265625,0.97753906,-0.0625,-0.375,-0.0625,0.0,0.0,0.0
1664547931128,-0.08984375,-0.2265625,0.98535156,0.0625,-0.125,0.0,0.0,0.0,0.0
1664547931155,-0.109375,-0.23046875,0.984375,-0.28125,0.3125,-0.0625,0.0,0.0,0.0
1664547931176,-0.111328125,-0.22363281,1.0009766,-0.0625,0.0,-0.1875,0.0,0.0,0.0
1664547931212,-0.1015625,-0.22265625,0.99316406,0.0625,-0.125,0.0625,0.0,0.0,0.0
1664547931289,-0.10546875,-0.22558594,0.9814453,0.625,0.0,0.125,0.0,0.0,0.0
1664547931334,-0.107421875,-0.21484375,0.98535156,0.25,0.125,0.0625,0.0,0.0,0.0
1664547931353,-0.09863281,-0.22460938,0.9873047,0.125,-0.125,-0.0625,0.0,0.0,0.0
1664547931395,-0.10644531,-0.22753906,0.99121094,-0.71875,0.71875,-0.0625,0.0,0.0,0.0
1664547931427,-0.10546875,-0.21972656,0.9921875,0.25,0.0625,-0.1875,0.0,0.0,0.0
1664547931449,-0.10058594,-0.21972656,1.0009766,0.1875,0.125,-0.125,-23.875,-50.375,-67.25
1664547931507,-0.103515625,-0.22265625,0.9892578,-0.46875,0.0,0.0,0.0,0.0,0.0
1664547931561,-0.09277344,-0.21386719,0.98828125,-0.0625,-0.1875,-0.0625,0.0,0.0,0.0
1664547931600,-0.09667969,-0.21386719,0.9902344,-0.0625,-0.375,-0.25,0.0,0.0,0.0
1664547931629,-0.10546875,-0.21289062,0.9863281,-0.0625,-0.25,-0.125,0.0,0.0,0.0
1664547931664,-0.111328125,-0.2109375,0.98339844,-0.34375,-0.125,-0.25,0.0,0.0,0.0
1664547931687,-0.109375,-0.234375,0.9941406,0.0,-0.125,-0.375,0.0,0.0,0.0
1664547931759,-0.09765625,-0.22753906,0.99121094,0.0,-0.0625,-0.3125,0.0,0.0,0.0
1664547931789,-0.09667969,-0.22167969,0.9921875,0.25,0.0,-0.1875,0.0,0.0,0.0
1664547931805,-0.107421875,-0.22558594,0.9873047,0.5625,-0.59375,0.3125,0.0,0.0,0.0
1664547931884,-0.09667969,-0.21289062,0.9970703,-0.46875,0.625,0.375,0.0,0.0,0.0
1664547931920,-0.107421875,-0.21289062,0.9892578,1.65625,-0.96875,0.375,0.0,0.0,0.0
1664547931940,-0.1015625,-0.21386719,1.0029297,-0.1875,0.25,-0.125,-24.0,-50.5,-65.75
1664547932024,-0.103515625,-0.22949219,0.9902344,-0.0625,0.3125,-0.375,0.0,0.0,0.0
1664547932051,-0.09863281,-0.21679688,0.9863281,0.3125,0.4375,-0.1875,0.0,0.0,0.0
1664547932070,-0.1015625,-0.21875,0.99316406,-0.78125,0.625,-0.1875,0.0,0.0,0.0
1664547932166,-0.10644531,-0.22070312,0.99609375,-0.0625,0.25,-0.25,0.0,0.0,0.0
1664547932203,-0.1015625,-0.22363281,0.98828125,0.0625,-0.3125,0.0,0.0,0.0,0.0
1664547932213,-0.10546875,-0.22363281,1.0029297,-0.0625,-0.125,0.3125,0.0,0.0,0.0
1664547932236,-0.10253906,-0.22167969,0.99902344,0.0,-0.5625,0.3125,0.0,0.0,0.0
1664547932258,-0.10058594,-0.22460938,1.0019531,0.0625,-0.375,0.0,0.0,0.0,0.0
1664547932299,-0.10546875,-0.22558594,0.9970703,-0.0625,-0.375,-0.125,0.0,0.0,0.0
1664547932352,-0.10058594,-0.22070312,0.98339844,0.0,-0.1875,0.0,0.0,0.0,0.0
1664547932381,-0.1015625,-0.21875,0.96777344,-0.0625,-0.125,0.0,0.0,0.0,0.0
1664547932408,-0.11035156,-0.22363281,0.96875,-0.125,0.0,-0.0625,0.0,0.0,0.0
1664547932481,-0.099609375,-0.21875,0.9951172,0.0,-0.0625,-0.125,-23.6875,-51.25,-65.75
1664547932504,-0.09277344,-0.23144531,1.0019531,0.125,-0.1875,0.1875,0.0,0.0,0.0
1664547932526,-0.09277344,-0.22558594,0.9824219,0.0625,-0.0625,0.1875,0.0,0.0,0.0
1664547932595,-0.091796875,-0.22070312,0.9980469,0.1875,0.0,0.1875,0.0,0.0,0.0
1664547932619,-0.09667969,-0.21875,0.984375,0.0,0.125,0.0625,0.0,0.0,0.0
1664547932652,-0.1015625,-0.21972656,0.99609375,0.25,-0.0625,0.1875,0.0,0.0,0.0
1664547932716,-0.115234375,-0.22949219,0.9736328,0.3125,0.1875,0.3125,0.0,0.0,0.0
1664547932766,-0.10839844,-0.22363281,0.97753906,-0.53125,-0.1875,0.125,0.0,0.0,0.0
1664547932785,-0.091796875,-0.2265625,0.99316406,0.125,0.6875,0.5625,0.0,0.0,0.0
1664547932862,-0.12011719,-0.21972656,0.9941406,0.0,1.78125,0.4375,0.0,0.0,0.0
1664547932892,-0.12597656,-0.21484375,0.9716797,-2.4375,0.4375,0.0,0.0,0.0,0.0
1664547932907,-0.107421875,-0.21289062,0.9892578,0.875,-1.34375,-0.375,0.0,0.0,0.0
1664547932945,-0.09765625,-0.22363281,1.0019531,-0.28125,-0.125,-0.25,-23.875,-51.125,-67.25
1664547932976,-0.08984375,-0.23242188,0.9941406,0.125,-0.375,0.0,0.0,0.0,0.0
1664547933021,-0.08886719,-0.21679688,0.97753906,-0.84375,0.5,0.0625,0.0,0.0,0.0
1664547933086,-0.09863281,-0.22363281,0.9765625,-0.0625,-0.0625,-0.0625,0.0,0.0,0.0
1664547933114,-0.10644531,-0.22753906,0.9902344,1.40625,-1.09375,0.0,0.0,0.0,0.0
1664547933138,-0.09472656,-0.21972656,0.99609375,0.1875,-0.125,0.0625,0.0,0.0,0.0
1664547933193,-0.10449219,-0.22460938,0.9941406,-0.125,-0.25,-0.4375,0.0,0.0,0.0
1664547933225,-0.10546875,-0.22363281,0.98046875,0.125,0.0,-0.4375,0.0,0.0,0.0
1664547933251,-0.1015625,-0.22265625,1.0,1.0625,-0.59375,-0.375,0.0,0.0,0.0
1664547933319,-0.10449219,-0.22167969,1.0009766,-0.21875,-0.5625,-0.375,0.0,0.0,0.0
1664547933343,-0.10058594,-0.22265625,0.9873047,0.9375,-0.3125,-0.0625,0.0,0.0,0.0
1664547933425,-0.09667969,-0.21875,0.97558594,-0.46875,0.375,0.125,0.0,0.0,0.0
1664547933428,-0.10058594,-0.21875,0.99121094,0.5625,-0.1875,0.125,0.0,0.0,0.0
1664547933463,-0.1015625,-0.21289062,0.98828125,-0.0625,0.125,0.4375,-22.8125,-49.625,-65.625
1664547933490,-0.11035156,-0.21386719,1.0097656,0.1875,-0.1875,0.4375,0.0,0.0,0.0
1664547933574,-0.08886719,-0.21386719,0.9785156,-0.28125,-0.25,0.4375,0.0,0.0,0.0
1664547933598,-0.095703125,-0.21582031,0.9814453,-0.125,-0.125,0.375,0.0,0.0,0.0
1664547933632,-0.09277344,-0.22265625,0.99609375,-0.0625,-0.125,0.375,0.0,0.0,0.0
1664547933693,-0.09277344,-0.21875,1.0048828,-0.125,0.0,0.375,0.0,0.0,0.0
1664547933722,-0.10644531,-0.2265625,0.9941406,-0.40625,0.25,0.25,0.0,0.0,0.0
1664547933733,-0.10449219,-0.2265625,0.984375,-0.0625,0.125,0.0625,0.0,0.0,0.0
1664547933800,-0.09765625,-0.22558594,0.98339844,-0.0625,-0.0625,0.0625,0.0,0.0,0.0
1664547933828,-0.09863281,-0.22265625,0.9892578,0.03125,-0.03125,-0.03125,0.0,0.0,0.0
1664547933848,-0.10058594,-0.21484375,1.0009766,0.21875,0.03125,0.15625,0.0,0.0,0.0
1664547933906,-0.10253906,-0.22070312,0.984375,0.09375,0.15625,-0.03125,0.0,0.0,0.0
1664547933940,-0.1015625,-0.22070312,0.97558594,0.28125,-0.28125,-0.15625,-24.625,-50.0625,-65.125
1664547933969,-0.103515625,-0.22167969,1.0029297,0.15625,0.21875,-0.09375,0.0,0.0,0.0
1664547934026,-0.10546875,-0.21191406,1.0009766,-0.5625,0.59375,-0.34375,0.0,0.0,0.0
1664547934072,-0.10058594,-0.21875,0.99316406,-0.25,0.28125,-0.34375,0.0,0.0,0.0
1664547934110,-0.103515625,-0.21972656,0.9814453,-0.4375,0.28125,-0.53125,0.0,0.0,0.0
1664547934172,-0.11230469,-0.22851562,0.9951172,-0.0625,-0.28125,-0.21875,0.0,0.0,0.0
1664547934199,-0.099609375,-0.22558594,0.9951172,0.0,-0.34375,0.03125,0.0,0.0,0.0
1664547934223,-0.09667969,-0.22070312,0.9941406,0.21875,-0.21875,-0.03125,0.0,0.0,0.0
1664547934273,-0.10449219,-0.22363281,0.9921875,0.40625,-0.59375,0.15625,0.0,0.0,0.0
1664547934327,-0.09765625,-0.20996094,0.9970703,0.71875,-0.75,0.28125,0.0,0.0,0.0
1664547934347,-0.099609375,-0.22167969,0.9902344,0.28125,-0.53125,0.5,0.0,0.0,0.0
1664547934412,-0.1015625,-0.21777344,0.98535156,0.0,-0.09375,0.28125,0.0,0.0,0.0
1664547934442,-0.103515625,-0.21484375,0.99121094,-0.5,0.28125,0.03125,0.0,0.0,0.0
1664547934447,-0.10253906,-0.21289062,0.9824219,-0.25,0.03125,0.28125,-24.125,-49.3125,-65.875
1664547934517,-0.09667969,-0.21386719,0.9951172,-0.25,-0.09375,0.21875,0.0,0.0,0.0
1664547934541,-0.1015625,-0.21972656,0.9892578,-0.3125,-0.09375,0.28125,0.0,0.0,0.0
1664547934567,-0.107421875,-0.22851562,0.984375,-0.25,-0.21875,0.15625,0.0,0.0,0.0
1664547934641,-0.111328125,-0.22363281,0.9873047,0.03125,0.28125,0.09375,0.0,0.0,0.0
1664547934663,-0.09375,-0.22363281,0.98535156,-0.375,0.59375,-0.03125,0.0,0.0,0.0
1664547934686,-0.103515625,-0.22460938,1.0058594,0.09375,0.09375,-0.09375,0.0,0.0,0.0
1664547934769,-0.10058594,-0.23046875,0.9902344,-0.0625,0.03125,-0.28125,0.0,0.0,0.0
1664547934781,-0.10253906,-0.22265625,0.9902344,0.09375,0.09375,-0.40625,0.0,0.0,0.0
1664547934833,-0.09863281,-0.21582031,0.99609375,-0.125,-0.09375,-0.46875,0.0,0.0,0.0
1664547934866,-0.10253906,-0.22265625,0.9892578,-0.125,0.09375,-0.34375,0.0,0.0,0.0
1664547934903,-0.09863281,-0.21875,0.99609375,-0.1875,0.34375,-0.28125,0.0,0.0,0.0
1664547934938,-0.10253906,-0.21679688,0.9921875,0.03125,-0.03125,-0.15625,-24.75,-48.4375,-64.375
1664547934998,-0.10253906,-0.21972656,0.9863281,-0.0625,-0.09375,-0.09375,0.0,0.0,0.0
1664547935021,-0.09863281,-0.21679688,0.98339844,0.03125,0.03125,-0.09375,0.0,0.0,0.0
1664547935051,-0.099609375,-0.21582031,0.99902344,-0.0625,0.03125,-0.09375,0.0,0.0,0.0
1664547935108,-0.107421875,-0.21875,0.9902344,-0.25,-0.03125,-0.09375,0.0,0.0,0.0
1664547935145,-0.10253906,-0.22167969,1.0058594,-0.0625,-0.03125,-0.09375,0.0,0.0,0.0
1664547935175,-0.10546875,-0.22167969,0.984375,-0.1875,0.15625,-0.03125,0.0,0.0,0.0
1664547935260,-0.10253906,-0.22265625,0.9892578,0.0,-0.03125,0.03125,0.0,0.0,0.0
1664547935282,-0.09863281,-0.21386719,0.9863281,-0.1875,-0.09375,0.03125,0.0,0.0,0.0
1664547935310,-0.10058594,-0.22070312,0.9970703,0.15625,-0.15625,0.03125,0.0,0.0,0.0
1664547935351,-0.09277344,-0.21875,0.9814453,-0.3125,0.53125,-0.09375,0.0,0.0,0.0
1664547935385,-0.10449219,-0.22070312,0.99609375,0.0,0.15625,0.09375,0.0,0.0,0.0
1664547935414,-0.10449219,-0.22363281,0.9921875,0.0,0.03125,-0.09375,0.0,0.0,0.0
1664547935499,-0.10644531,-0.21484375,1.0009766,0.0,-0.09375,-0.15625,-24.625,-50.0625,-66.1875
1664547935533,-0.09472656,-0.21582031,0.98828125,-0.0625,-0.21875,-0.21875,0.0,0.0,0.0
1664547935564,-0.103515625,-0.21777344,0.99121094,-0.125,-0.09375,-0.09375,0.0,0.0,0.0
1664547935601,-0.10058594,-0.22265625,0.97753906,-0.1875,-0.15625,0.09375,0.0,0.0,0.0
1664547935632,-0.09863281,-0.22167969,0.9902344,0.03125,-0.09375,0.09375,0.0,0.0,0.0
1664547935690,-0.09375,-0.22363281,0.99316406,-0.125,0.03125,0.03125,0.0,0.0,0.0
1664547935719,-0.099609375,-0.22265625,0.9902344,0.09375,-0.03125,-0.03125,0.0,0.0,0.0
1664547935745,-0.103515625,-0.21875,1.0,-0.0625,-0.21875,0.15625,0.0,0.0,0.0
1664547935766,-0.095703125,-0.21875,1.0,-0.0625,-0.15625,0.15625,0.0,0.0,0.0
1664547935831,-0.103515625,-0.22265625,0.9970703,0.21875,-0.09375,0.09375,0.0,0.0,0.0
1664547935868,-0.10546875,-0.22363281,0.9863281,-0.375,0.21875,0.03125,0.0,0.0,0.0
1664547935909,-0.09765625,-0.21875,0.99316406,-0.0625,-0.09375,0.09375,0.0,0.0,0.0
1664547935954,-0.09765625,-0.21289062,0.9785156,-0.0625,-0.03125,-0.03125,-24.4375,-50.1875,-66.0625
1664547935983,-0.103515625,-0.22070312,1.0,0.09375,-0.21875,0.03125,0.0,0.0,0.0
1664547936008,-0.09863281,-0.22070312,0.9951172,-0.4375,0.59375,0.03125,0.0,0.0,0.0
1664547936092,-0.1015625,-0.21582031,1.0136719,-0.125,0.28125,0.09375,0.0,0.0,0.0
1664547936134,-0.09863281,-0.21191406,0.9863281,-0.125,0.09375,0.09375,0.0,0.0,0.0
1664547936155,-0.09765625,-0.22070312,0.99121094,-0.125,-0.09375,-0.03125,0.0,0.0,0.0
1664547936206,-0.10058594,-0.22167969,0.9951172,0.09375,-0.15625,0.03125,0.0,0.0,0.0
1664547936228,-0.103515625,-0.22265625,0.9980469,-0.125,0.03125,-0.09375,0.0,0.0,0.0
1664547936247,-0.095703125,-0.22265625,1.0048828,-0.0625,0.15625,-0.03125,0.0,0.0,0.0
1664547936312,-0.09667969,-0.22070312,0.97753906,-0.0625,-0.03125,0.03125,0.0,0.0,0.0
1664547936336,-0.09472656,-0.22949219,0.98339844,-0.125,-0.03125,0.28125,0.0,0.0,0.0
1664547936382,-0.09277344,-0.21777344,0.984375,0.0,-0.03125,0.03125,0.0,0.0,0.0
1664547936449,-0.09472656,-0.21289062,0.9785156,0.0,-0.15625,-0.03125,0.0,0.0,0.0
1664547936474,-0.107421875,-0.22167969,0.98339844,0.15625,-0.28125,-0.25,-24.875,-50.6875,-65.625
1664547936510,-0.10449219,-0.22460938,0.99121094,0.03125,0.28125,-0.3125,0.0,0.0,0.0
1664547936549,-0.10839844,-0.21289062,1.0,-0.03125,0.21875,-0.25,0.0,0.0,0.0
1664547936586,-0.099609375,-0.22851562,1.0048828,-0.03125,0.625,0.0625,0.0,0.0,0.0
1664547936614,-0.10253906,-0.20898438,0.98828125,0.03125,0.34375,0.25,0.0,0.0,0.0
1664547936666,-0.109375,-0.2109375,0.98339844,-0.8125,0.28125,-0.0625,0.0,0.0,0.0
1664547936708,-0.10058594,-0.21386719,1.0058594,-0.21875,-0.28125,-0.1875,0.0,0.0,0.0
1664547936732,-0.10839844,-0.22167969,0.99316406,-0.6875,0.46875,0.0,0.0,0.0,0.0
1664547936807,-0.099609375,-0.21972656,0.9824219,-0.6875,0.09375,0.0,0.0,0.0,0.0
1664547936856,-0.09472656,-0.2265625,0.9902344,-0.25,0.03125,0.0,0.0,0.0,0.0
1664547936888,-0.10546875,-0.23535156,0.9873047,-0.03125,0.21875,-0.125,0.0,0.0,0.0
1664547936930,-0.10644531,-0.21972656,0.9902344,0.03125,0.40625,0.0625,0.0,0.0,0.0
1664547936965,-0.10253906,-0.22167969,0.9794922,0.09375,0.03125,0.0625,-23.6875,-49.1875,-65.75
1664547936984,-0.119140625,-0.22070312,0.9970703,0.53125,-0.28125,-0.3125,0.0,0.0,0.0
1664547937079,-0.10253906,-0.22167969,0.98535156,0.28125,-0.34375,-0.5,0.0,0.0,0.0
1664547937089,-0.09863281,-0.22265625,0.97753906,0.59375,-0.15625,-0.71875,0.0,0.0,0.0
1664547937099,-0.091796875,-0.21679688,0.99121094,-0.5625,0.75,-0.25,0.0,0.0,0.0
1664547937167,-0.09863281,-0.22753906,0.9921875,-0.03125,0.21875,-0.0625,0.0,0.0,0.0
1664547937190,-0.10253906,-0.21484375,0.99316406,-0.03125,-0.28125,-0.0625,0.0,0.0,0.0
1664547937212,-0.10546875,-0.21484375,0.9794922,0.15625,-0.21875,-0.25,0.0,0.0,0.0
1664547937278,-0.10449219,-0.22558594,0.9873047,-0.03125,-0.34375,-0.0625,0.0,0.0,0.0
1664547937309,-0.09765625,-0.22265625,0.9892578,-2.03125,1.8125,0.1875,0.0,0.0,0.0
1664547937326,-0.10449219,-0.22265625,0.984375,0.40625,-0.34375,-0.3125,0.0,0.0,0.0
1664547937425,-0.10449219,-0.21777344,0.9902344,-0.09375,0.15625,-0.125,0.0,0.0,0.0
1664547937447,-0.11328125,-0.21777344,0.9941406,-0.4375,0.03125,-0.0625,0.0,0.0,0.0
1664547937478,-0.09863281,-0.2265625,0.9765625,-0.03125,-0.28125,-0.1875,-25.0625,-49.1875,-64.375
1664547937525,-0.099609375,-0.2265625,0.9970703,-0.03125,-0.21875,-0.3125,0.0,0.0,0.0
1664547937567,-0.10839844,-0.22070312,0.9873047,-0.03125,-0.15625,-0.25,0.0,0.0,0.0
1664547937594,-0.099609375,-0.21386719,0.99121094,0.03125,-0.34375,-0.0625,0.0,0.0,0.0
1664547937635,-0.10253906,-0.21386719,0.9736328,0.40625,-0.875,0.25,0.0,0.0,0.0
1664547937663,-0.091796875,-0.23339844,0.96875,0.59375,-1.0,0.125,0.0,0.0,0.0
1664547937686,-0.111328125,-0.22460938,0.9970703,0.15625,-0.21875,0.0,0.0,0.0,0.0
1664547937753,-0.10839844,-0.21972656,1.0,-0.21875,0.21875,-0.375,0.0,0.0,0.0
1664547937791,-0.10546875,-0.21386719,0.9951172,-0.21875,0.34375,-0.375,0.0,0.0,0.0
1664547937818,-0.10644531,-0.22949219,0.9951172,0.28125,0.21875,-0.375,0.0,0.0,0.0
1664547937908,-0.10058594,-0.22460938,0.9892578,0.40625,-0.09375,0.0,0.0,0.0,0.0
1664547937936,-0.09863281,-0.21972656,0.98046875,0.15625,-0.09375,0.125,0.0,0.0,0.0
1664547938016,-0.103515625,-0.22265625,1.0048828,0.59375,0.15625,0.0,-25.5,-50.1875,-65.0
1664547938059,-0.09863281,-0.21679688,0.9951172,-0.09375,0.46875,0.0625,0.0,0.0,0.0
1664547938082,-0.103515625,-0.21484375,0.9785156,0.34375,0.21875,0.25,0.0,0.0,0.0
1664547938117,-0.103515625,-0.21191406,0.9824219,-0.09375,0.03125,0.125,0.0,0.0,0.0
1664547938173,-0.107421875,-0.21386719,0.9892578,-0.21875,-0.03125,-0.0625,0.0,0.0,0.0
1664547938208,-0.103515625,-0.21582031,0.9892578,-0.75,0.28125,-0.25,0.0,0.0,0.0
1664547938248,-0.10546875,-0.21972656,0.9941406,-0.4375,-0.03125,-0.3125,0.0,0.0,0.0
1664547938312,-0.1015625,-0.2265625,0.99121094,-0.3125,-0.15625,-0.25,0.0,0.0,0.0
1664547938345,-0.10058594,-0.22265625,0.98339844,-0.09375,-0.28125,-0.125,0.0,0.0,0.0
1664547938361,-0.09667969,-0.22265625,0.9785156,-0.09375,-0.03125,0.0,0.0,0.0,0.0
1664547938415,-0.091796875,-0.21972656,0.9970703,0.09375,0.15625,0.0,0.0,0.0,0.0
1664547938463,-0.11035156,-0.23242188,1.0,0.53125,0.03125,-0.0625,0.0,0.0,0.0
1664547938494,-0.109375,-0.22753906,0.9736328,0.46875,-0.03125,-0.1875,0.0,0.0,0.0
1664547938535,-0.10546875,-0.21777344,0.9941406,0.15625,-0.03125,0.0625,-24.0,-50.1875,-66.0625
1664547938561,-0.09277344,-0.21777344,0.9951172,-0.5,0.40625,0.0625,0.0,0.0,0.0
1664547938580,-0.11230469,-0.21191406,0.9951172,-0.15625,-0.15625,0.0625,0.0,0.0,0.0
1664547938607,-0.095703125,-0.21875,0.99121094,-2.28125,1.8125,0.125,0.0,0.0,0.0
1664547938616,-0.10644531,-0.21289062,0.98339844,0.15625,0.21875,0.0625,0.0,0.0,0.0
1664547938663,-0.1015625,-0.22167969,0.9921875,-0.375,0.34375,0.0625,0.0,0.0,0.0
1664547938721,-0.1015625,-0.22265625,0.984375,0.03125,0.09375,-0.1875,0.0,0.0,0.0
1664547938755,-0.10253906,-0.22753906,0.99121094,-0.03125,-0.21875,-0.0625,0.0,0.0,0.0
1664547938772,-0.08886719,-0.22851562,0.99609375,0.34375,-0.34375,-0.0625,0.0,0.0,0.0
1664547938827,-0.11230469,-0.21386719,0.9970703,0.03125,0.15625,0.0,0.0,0.0,0.0
1664547938860,-0.10058594,-0.22265625,0.9951172,-0.15625,-0.03125,-0.125,0.0,0.0,0.0
1664547938897,-0.10449219,-0.21582031,0.96875,-0.09375,-0.09375,-0.125,0.0,0.0,0.0
1664547938952,-0.111328125,-0.21679688,0.9970703,-0.03125,-0.03125,-0.1875,-24.4375,-50.8125,-66.8125
1664547938985,-0.099609375,-0.22070312,0.9902344,-0.25,-0.03125,-0.0625,0.0,0.0,0.0
1664547939008,-0.09863281,-0.22070312,0.99316406,-0.5,-0.03125,-0.0625,0.0,0.0,0.0
1664547939067,-0.10546875,-0.21972656,0.98535156,0.03125,-0.09375,0.0625,0.0,0.0,0.0
1664547939097,-0.10253906,-0.22167969,0.9902344,-0.03125,-0.03125,0.0625,0.0,0.0,0.0
1664547939178,-0.10253906,-0.22363281,1.0048828,-0.21875,0.03125,0.0,0.0,0.0,0.0
1664547939243,-0.10546875,-0.2265625,0.99609375,0.15625,-0.28125,0.1875,0.0,0.0,0.0
1664547939275,-0.103515625,-0.22167969,0.97753906,-0.5625,0.5625,-0.0625,0.0,0.0,0.0
1664547939295,-0.09765625,-0.22167969,0.9941406,0.03125,0.34375,-0.3125,0.0,0.0,0.0
1664547939334,-0.10644531,-0.21386719,0.9873047,-0.875,1.125,-0.125,0.0,0.0,0.0
1664547939368,-0.11035156,-0.21875,0.99902344,-0.25,-0.34375,-0.5,0.0,0.0,0.0
1664547939386,-0.10546875,-0.21582031,0.9863281,0.21875,-0.34375,-0.5,0.0,0.0,0.0
1664547939437,-0.10058594,-0.22363281,0.98339844,-0.03125,-0.34375,-0.4375,0.0,0.0,0.0
1664547939467,-0.10253906,-0.23046875,0.99316406,-0.03125,0.34375,-0.25,-24.4375,-50.5,-66.375
1664547939486,-0.107421875,-0.22949219,0.9785156,-0.09375,0.09375,-0.125,0.0,0.0,0.0
1664547939578,-0.10253906,-0.22851562,0.9892578,0.21875,-0.28125,-0.0625,0.0,0.0,0.0
1664547939600,-0.09863281,-0.22167969,0.9863281,-0.09375,-0.15625,-0.375,0.0,0.0,0.0
1664547939630,-0.1015625,-0.21484375,0.984375,-0.21875,0.28125,-0.125,0.0,0.0,0.0
1664547939697,-0.109375,-0.21972656,0.99316406,-0.25,0.21875,-0.1875,0.0,0.0,0.0
1664547939730,-0.11328125,-0.21484375,0.9941406,-0.375,0.40625,-0.375,0.0,0.0,0.0
1664547939752,-0.107421875,-0.22460938,0.9892578,-0.4375,0.28125,-0.0625,0.0,0.0,0.0
1664547939821,-0.09863281,-0.21777344,0.9970703,0.09375,-0.09375,0.1875,0.0,0.0,0.0
1664547939843,-0.09667969,-0.21875,0.9824219,-1.5625,0.875,0.625,0.0,0.0,0.0
1664547939873,-0.099609375,-0.21777344,0.9794922,-1.4375,1.1875,0.5,0.0,0.0,0.0
1664547939907,-0.10644531,-0.23242188,0.99121094,-3.5625,3.4375,1.03125,0.0,0.0,0.0
1664547939950,-0.11230469,-0.22363281,0.9941406,-5.6875,4.96875,1.96875,-23.875,-50.0625,-65.875
1664547939988,-0.119140625,-0.23242188,0.9970703,-5.9375,5.40625,2.375,0.0,0.0,0.0
1664547940039,-0.12402344,-0.23730469,0.99121094,-4.71875,4.375,1.28125,0.0,0.0,0.0
1664547940067,-0.123046875,-0.2421875,0.9658203,-1.375,1.8125,-0.25,0.0,0.0,0.0
1664547940086,-0.11328125,-0.234375,0.97753906,3.875,-2.0625,-1.40625,0.0,0.0,0.0
1664547940166,-0.11328125,-0.22753906,0.9873047,4.5625,-2.84375,-1.15625,0.0,0.0,0.0
1664547940214,-0.109375,-0.24023438,0.99316406,2.0,-1.25,-0.1875,0.0,0.0,0.0
1664547940271,-0.10449219,-0.21484375,0.9892578,1.375,-0.71875,0.0625,0.0,0.0,0.0
1664547940281,-0.125,-0.22949219,0.9814453,1.1875,-1.0,-0.0625,0.0,0.0,0.0
1664547940303,-0.119140625,-0.22167969,0.99121094,0.65625,-0.75,-0.4375,0.0,0.0,0.0
1664547940337,-0.119140625,-0.21972656,0.9873047,0.65625,-0.9375,-0.5625,0.0,0.0,0.0
1664547940416,-0.12011719,-0.22363281,0.9921875,0.78125,-1.0625,-0.5625,0.0,0.0,0.0
1664547940430,-0.107421875,-0.23339844,0.9892578,0.46875,-1.0,-0.3125,0.0,0.0,0.0
1664547940447,-0.109375,-0.23242188,0.9941406,-0.03125,-0.59375,-0.3125,-23.5625,-50.6875,-66.625
1664547940508,-0.11035156,-0.23730469,0.98339844,0.03125,-0.59375,-0.125,0.0,0.0,0.0
1664547940541,-0.11230469,-0.23144531,0.9941406,0.34375,-0.53125,-0.4375,0.0,0.0,0.0
1664547940567,-0.109375,-0.21972656,0.9921875,-0.25,-0.03125,-0.25,0.0,0.0,0.0
1664547940652,-0.11328125,-0.22753906,0.9892578,-1.0,0.75,-0.59375,0.0,0.0,0.0
1664547940672,-0.12597656,-0.23632812,0.9921875,-4.0,3.03125,-0.5625,0.0,0.0,0.0
1664547940694,-0.12109375,-0.22167969,0.98828125,-13.3125,9.90625,-0.90625,0.0,0.0,0.0
1664547940759,-0.15722656,-0.25,0.9902344,-22.59375,13.875,-0.5625,0.0,0.0,0.0
1664547940788,-0.22167969,-0.18652344,0.9580078,-21.03125,6.75,-9.53125,0.0,0.0,0.0
1664547940824,-0.25195312,-0.20996094,0.984375,-20.15625,-4.3125,-17.75,0.0,0.0,0.0
1664547940873,-0.203125,-0.3154297,0.99316406,-18.875,-7.46875,-15.375,0.0,0.0,0.0
1664547940905,-0.16992188,-0.26660156,1.0126953,-11.25,-19.0625,-18.25,0.0,0.0,0.0
1664547940931,-0.083984375,-0.3623047,1.03125,-21.9375,-20.59375,-20.4375,-26.875,-51.875,-70.125
1664547941024,-0.0625,-0.36132812,0.9169922,-13.21875,-20.28125,-20.25,0.0,0.0,0.0
1664547941051,-0.030273438,-0.36621094,0.96191406,-11.6875,-13.65625,-22.53125,0.0,0.0,0.0
1664547941074,0.036132812,-0.37109375,0.9638672,-2.15625,-10.71875,-22.8125,0.0,0.0,0.0
1664547941113,0.060546875,-0.29101562,0.91015625,-5.34375,-6.25,-11.59375,0.0,0.0,0.0
1664547941149,0.055664062,-0.35253906,0.9082031,-7.46875,-2.59375,-3.34375,0.0,0.0,0.0
1664547941169,0.05859375,-0.41015625,0.8857422,1.125,7.0,-3.40625,0.0,0.0,0.0
1664547941262,0.07421875,-0.37304688,0.91308594,10.21875,8.28125,-4.34375,0.0,0.0,0.0
1664547941282,0.06933594,-0.33691406,0.9404297,6.21875,8.875,1.96875,0.0,0.0,0.0
1664547941292,-0.0146484375,-0.33691406,0.9267578,0.21875,15.65625,4.21875,0.0,0.0,0.0
1664547941350,-0.055664062,-0.3798828,0.9482422,3.46875,19.8125,2.125,0.0,0.0,0.0
1664547941383,-0.09082031,-0.3466797,0.9716797,4.75,23.40625,0.6875,0.0,0.0,0.0
1664547941424,-0.08691406,-0.30371094,0.95410156,6.21875,21.9375,0.96875,0.0,0.0,0.0
1664547941470,-0.11621094,-0.31640625,0.9658203,7.125,21.75,6.84375,-26.125,-53.375,-68.125
1664547941499,-0.15332031,-0.33203125,0.94433594,10.59375,19.6875,11.15625,0.0,0.0,0.0
1664547941528,-0.21191406,-0.26757812,0.9873047,15.84375,21.03125,10.375,0.0,0.0,0.0
