# Sensor type: Thingy
# Activity type: Falling on the back
# Activity code: 47
# Subject id: s1956488
# Notes: 1
timestamp,accel_x,accel_y,accel_z,gyro_x,gyro_y,gyro_z,mag_x,mag_y,mag_z
1664548917579,-1.0703125,0.20507812,0.076171875,-26.875,16.0625,-1.90625,0.0,0.0,0.0
1664548917680,-0.8642578,0.29296875,0.17089844,15.125,6.15625,-8.6875,0.0,0.0,0.0
1664548917682,-0.92089844,0.43066406,0.22167969,-7.40625,17.40625,-2.53125,0.0,0.0,0.0
1664548917720,-0.96972656,0.36621094,0.125,-8.375,10.1875,3.59375,0.0,0.0,0.0
1664548917792,-0.9433594,0.30078125,0.11035156,4.21875,4.21875,1.6875,0.0,0.0,0.0
1664548917826,-0.9199219,0.3671875,0.1171875,-5.875,13.8125,-2.40625,0.0,0.0,0.0
1664548917859,-0.91796875,0.37695312,0.09863281,-3.0,14.34375,1.5,0.0,0.0,0.0
1664548917900,-0.9189453,0.3828125,0.08496094,-2.03125,17.875,4.625,0.0,0.0,0.0
1664548917923,-0.94921875,0.3486328,0.06738281,-5.125,20.6875,3.09375,0.0,0.0,0.0
1664548917950,-0.9472656,0.33203125,0.06542969,-7.21875,17.53125,0.84375,0.0,0.0,0.0
1664548918053,-0.9404297,0.34277344,0.06640625,-0.1875,3.1875,0.46875,0.0,0.0,0.0
1664548918067,-0.9355469,0.34375,0.07714844,-0.875,-6.09375,-0.5,-76.0625,-28.75,-127.5625
1664548918117,-1.0058594,0.36621094,0.11816406,2.4375,-25.75,-4.15625,0.0,0.0,0.0
1664548918189,-0.8876953,0.34570312,0.22949219,7.25,-59.1875,-7.53125,0.0,0.0,0.0
1664548918218,-0.89941406,0.39257812,0.26953125,-2.375,-68.40625,1.375,0.0,0.0,0.0
1664548918241,-0.8984375,0.22949219,0.453125,-8.0,-110.15625,0.59375,0.0,0.0,0.0
1664548918308,-0.67578125,0.05078125,0.3076172,-27.40625,-104.71875,-9.0,0.0,0.0,0.0
1664548918357,-0.6953125,0.13769531,0.31054688,-10.3125,-100.8125,-11.0625,0.0,0.0,0.0
1664548918384,-0.7363281,0.28027344,0.44726562,-14.90625,-109.5625,-26.375,0.0,0.0,0.0
1664548918418,-0.6152344,0.25195312,0.49902344,-22.90625,-100.40625,-45.0,0.0,0.0,0.0
1664548918489,-0.6640625,0.20019531,0.5185547,-28.6875,-83.0,-59.78125,0.0,0.0,0.0
1664548918491,-0.828125,0.14453125,0.45214844,-31.75,-60.90625,-73.25,0.0,0.0,0.0
1664548918526,-0.88964844,0.18164062,0.5625,-36.1875,-66.59375,-76.3125,0.0,0.0,0.0
1664548918552,-0.61621094,0.18847656,0.5283203,-13.5,-65.59375,-71.5,-77.875,-40.4375,-96.625
1664548918578,-0.7128906,0.12109375,0.6953125,-13.9375,-74.53125,-55.5,0.0,0.0,0.0
1664548918635,-0.6201172,0.1015625,0.7910156,-7.15625,-82.28125,-40.78125,0.0,0.0,0.0
1664548918662,-0.7626953,0.053710938,0.8310547,-5.3125,-74.21875,-37.0625,0.0,0.0,0.0
1664548918698,-0.61328125,-0.0029296875,0.96972656,-6.84375,-85.5,-37.625,0.0,0.0,0.0
1664548918743,-0.67089844,0.08203125,0.7705078,-12.6875,-76.34375,-32.90625,0.0,0.0,0.0
1664548918785,-0.50390625,-0.038085938,0.7529297,-14.28125,-72.0625,-37.6875,0.0,0.0,0.0
1664548918817,-0.44140625,-0.1015625,0.8564453,-9.78125,-65.3125,-38.15625,0.0,0.0,0.0
1664548918864,-0.546875,-0.087890625,0.87890625,-16.25,-62.8125,-45.1875,0.0,0.0,0.0
1664548918901,-0.4248047,-0.09765625,0.98339844,-0.96875,-68.90625,-39.5,0.0,0.0,0.0
1664548918933,-0.46777344,-0.12988281,0.8769531,-14.71875,-56.5625,-49.28125,0.0,0.0,0.0
1664548919007,-0.2998047,-0.03515625,0.91015625,10.3125,-84.15625,-52.1875,0.0,0.0,0.0
1664548919051,-0.55078125,-0.13769531,1.2158203,10.0,-101.8125,-27.46875,0.0,0.0,0.0
1664548919071,-0.4404297,-0.06640625,1.5224609,42.34375,-124.875,-12.59375,-57.625,-54.875,-74.125
1664548919121,-0.52441406,0.3564453,1.6191406,8.84375,-119.0625,59.0,0.0,0.0,0.0
1664548919171,-0.8339844,-0.091796875,1.3945312,-33.875,-115.09375,69.4375,0.0,0.0,0.0
1664548919211,-0.5761719,-0.018554688,0.90234375,0.90625,-137.125,76.21875,0.0,0.0,0.0
1664548919261,-0.375,0.15917969,0.65234375,-13.9375,-116.625,80.90625,0.0,0.0,0.0
1664548919300,-0.26171875,0.21679688,0.6894531,-44.3125,-105.59375,73.46875,0.0,0.0,0.0
1664548919331,-0.19921875,-0.026367188,0.6386719,-75.1875,-116.875,66.625,0.0,0.0,0.0
1664548919393,-0.24609375,-0.37890625,0.7109375,-86.375,-136.90625,51.125,0.0,0.0,0.0
1664548919441,0.10839844,-0.34277344,0.47851562,-76.84375,-157.65625,5.71875,0.0,0.0,0.0
1664548919474,0.9609375,-0.49804688,1.40625,-23.4375,-246.875,-4.53125,0.0,0.0,0.0
1664548919514,1.8466797,-0.41210938,-0.4267578,17.5625,-134.8125,22.125,0.0,0.0,0.0
1664548919573,0.6542969,-0.734375,0.67871094,3.90625,0.5,68.71875,0.0,0.0,0.0
1664548919603,0.38867188,-0.7167969,1.0419922,54.0625,60.75,9.1875,-12.125,-63.4375,-72.0625
1664548919658,0.57128906,-0.3388672,0.2548828,37.90625,5.4375,44.28125,0.0,0.0,0.0
1664548919675,0.28808594,-0.42773438,0.63671875,26.125,-33.375,59.8125,0.0,0.0,0.0
1664548919717,1.1884766,-0.76953125,0.3173828,11.03125,-33.625,26.71875,0.0,0.0,0.0
1664548919751,1.9267578,-0.95410156,0.43359375,34.40625,13.4375,54.1875,0.0,0.0,0.0
1664548919788,0.0390625,-0.15039062,0.71875,-26.625,-2.0,37.21875,0.0,0.0,0.0
1664548919828,1.03125,-0.9873047,0.63183594,-15.4375,70.9375,-47.375,0.0,0.0,0.0
1664548919897,0.8955078,-0.7363281,0.8847656,-43.71875,38.28125,-52.625,0.0,0.0,0.0
1664548919932,0.51464844,-1.0244141,0.7011719,-3.1875,69.65625,-89.25,0.0,0.0,0.0
1664548919971,0.4033203,-0.19824219,0.28320312,79.8125,37.0625,-59.03125,0.0,0.0,0.0
1664548920006,0.46679688,0.17382812,0.49023438,42.0625,38.21875,-35.96875,0.0,0.0,0.0
1664548920054,0.3330078,-0.0078125,0.27929688,-25.65625,51.75,-2.53125,0.0,0.0,0.0
1664548920086,0.78515625,-0.45410156,0.6347656,9.21875,70.0625,-12.15625,0.0,0.0,0.0
1664548920158,1.2783203,-0.7109375,0.63671875,-10.25,75.5625,-18.875,-20.125,-59.375,-66.8125
1664548920172,0.43652344,-0.37402344,1.6113281,58.09375,19.65625,-8.4375,0.0,0.0,0.0
1664548920197,0.40234375,0.28027344,0.3359375,-48.28125,41.21875,-4.96875,0.0,0.0,0.0
1664548920275,0.4580078,-0.15332031,0.62597656,34.46875,55.1875,13.84375,0.0,0.0,0.0
1664548920278,0.39941406,-0.46972656,0.80371094,-16.53125,76.96875,-0.75,0.0,0.0,0.0
1664548920318,0.38867188,-0.38671875,0.7421875,26.46875,102.3125,-1.96875,0.0,0.0,0.0
1664548920375,0.31347656,-0.16601562,0.85058594,45.03125,124.40625,7.5625,0.0,0.0,0.0
1664548920401,-0.1015625,0.09277344,1.0673828,23.8125,121.34375,24.09375,0.0,0.0,0.0
1664548920432,-0.005859375,-0.21679688,1.3554688,33.4375,84.78125,39.46875,0.0,0.0,0.0
1664548920467,-0.40234375,-0.24511719,1.2333984,15.4375,46.03125,33.96875,0.0,0.0,0.0
1664548920507,-0.32226562,-0.028320312,1.2451172,-38.40625,-2.5,2.65625,0.0,0.0,0.0
1664548920511,-0.041015625,-0.140625,1.1650391,4.3125,-50.53125,8.84375,0.0,0.0,0.0
1664548920583,-0.016601562,-0.18554688,1.0498047,-13.625,-40.59375,7.84375,-43.5,-51.5625,-66.0625
1664548920608,0.0107421875,-0.2734375,0.88671875,-7.15625,-32.90625,-0.9375,0.0,0.0,0.0
1664548920635,0.13085938,-0.25585938,0.8964844,1.40625,-13.53125,-9.34375,0.0,0.0,0.0
1664548920676,0.0625,-0.25097656,0.9794922,7.5,0.0625,-11.375,0.0,0.0,0.0
1664548920761,0.12011719,-0.24316406,0.9404297,-2.6875,-0.59375,-15.03125,0.0,0.0,0.0
1664548920762,0.14746094,-0.2890625,1.0166016,-2.375,-0.53125,-17.59375,0.0,0.0,0.0
1664548920825,0.22851562,-0.13085938,0.96777344,-17.71875,-16.90625,-20.34375,0.0,0.0,0.0
1664548920865,0.18359375,-0.1015625,1.0791016,22.46875,-37.90625,-17.34375,0.0,0.0,0.0
1664548920890,0.24902344,-0.15234375,1.0146484,-17.15625,-42.28125,-9.53125,0.0,0.0,0.0
1664548920949,0.20800781,-0.10253906,0.90722656,-41.5,-45.90625,-4.59375,0.0,0.0,0.0
1664548920978,0.19726562,-0.12890625,0.92578125,-34.0,-52.3125,5.59375,0.0,0.0,0.0
1664548921011,0.24414062,-0.2607422,0.85253906,-33.03125,-48.40625,6.09375,0.0,0.0,0.0
1664548921080,0.35839844,-0.3388672,0.890625,-32.125,-49.6875,3.21875,0.0,0.0,0.0
1664548921131,0.3876953,-0.25976562,0.94921875,-39.96875,-53.71875,-0.5625,-31.9375,-58.1875,-66.9375
1664548921132,0.4267578,-0.26953125,0.8046875,-52.5,-54.0625,-5.25,0.0,0.0,0.0
1664548921202,0.55566406,-0.29589844,0.6972656,-61.59375,-56.21875,1.8125,0.0,0.0,0.0
1664548921214,0.3564453,-0.35839844,0.8339844,-66.21875,-52.375,16.21875,0.0,0.0,0.0
1664548921244,0.30078125,-0.44140625,0.78027344,-38.03125,-24.84375,15.4375,0.0,0.0,0.0
1664548921300,0.24316406,-0.44335938,0.7753906,-9.65625,-8.90625,20.125,0.0,0.0,0.0
1664548921330,0.46289062,-0.4189453,0.9248047,-5.6875,11.125,9.125,0.0,0.0,0.0
1664548921375,0.55078125,-0.6386719,0.7841797,-24.65625,21.3125,9.1875,0.0,0.0,0.0
1664548921414,0.5097656,-0.6152344,0.7138672,-11.71875,10.25,16.21875,0.0,0.0,0.0
1664548921435,0.40722656,-0.55078125,0.68847656,-10.6875,13.96875,16.53125,0.0,0.0,0.0
1664548921474,0.6660156,-0.45703125,0.75,19.09375,20.21875,14.6875,0.0,0.0,0.0
1664548921529,0.81933594,-0.5048828,0.6953125,-15.6875,33.625,30.0,0.0,0.0,0.0
1664548921552,0.484375,-0.78027344,0.8847656,-7.03125,46.8125,32.09375,-30.0,-68.1875,-69.8125
1664548921566,0.17089844,-0.5751953,0.8808594,-2.875,48.21875,20.1875,0.0,0.0,0.0
1664548921615,0.5361328,-0.9189453,0.81347656,30.34375,32.46875,28.3125,0.0,0.0,0.0
1664548921641,0.453125,-0.5058594,0.91308594,29.0,12.34375,35.1875,0.0,0.0,0.0
1664548921672,0.18261719,-0.515625,0.9082031,-10.1875,7.9375,18.71875,0.0,0.0,0.0
1664548921702,0.2890625,-0.65234375,0.87109375,-8.0,-16.53125,-7.09375,0.0,0.0,0.0
1664548921717,0.31835938,-0.64746094,1.0058594,13.46875,-34.21875,-10.5625,0.0,0.0,0.0
1664548921733,0.2890625,-0.6923828,1.0517578,32.34375,-76.71875,-25.59375,0.0,0.0,0.0
1664548921790,0.44628906,-0.7685547,0.90625,61.8125,-77.375,-28.46875,0.0,0.0,0.0
1664548921824,0.20019531,-0.65527344,0.796875,75.75,-102.03125,-46.09375,0.0,0.0,0.0
1664548921873,0.5761719,-0.5683594,0.7421875,89.34375,-88.625,-65.125,0.0,0.0,0.0
1664548921917,0.6425781,-0.3544922,0.6894531,104.84375,-89.15625,-78.5625,0.0,0.0,0.0
1664548921968,0.7890625,-0.5371094,0.5410156,97.78125,-18.96875,-83.4375,0.0,0.0,0.0
1664548922008,-0.15722656,0.1953125,-0.022460938,118.28125,2.8125,-16.0625,-16.625,-50.5,-66.375
1664548922092,0.60546875,0.46484375,0.2705078,82.8125,50.4375,-35.40625,0.0,0.0,0.0
1664548922143,-0.08886719,0.2109375,0.17382812,3.53125,91.75,-8.6875,0.0,0.0,0.0
1664548922168,0.63183594,0.05078125,0.7675781,-53.46875,115.1875,-16.1875,0.0,0.0,0.0
1664548922241,0.5644531,-1.1162109,0.94921875,28.8125,74.15625,-36.625,0.0,0.0,0.0
1664548922290,0.22558594,1.1787109,0.4296875,101.625,85.21875,90.0625,0.0,0.0,0.0
1664548922336,-0.37695312,-0.55859375,0.8203125,-32.65625,145.8125,8.40625,0.0,0.0,0.0
1664548922377,-0.41601562,0.3466797,1.4511719,128.71875,39.625,-28.21875,0.0,0.0,0.0
1664548922425,0.15234375,0.90234375,1.9462891,13.59375,-11.71875,-26.8125,0.0,0.0,0.0
1664548922449,-0.53125,0.0048828125,1.3740234,-45.59375,-8.71875,-27.59375,0.0,0.0,0.0
1664548922499,-0.40039062,0.3203125,0.921875,-16.5,-36.375,-27.90625,0.0,0.0,0.0
1664548922511,0.0859375,0.4453125,0.9970703,-35.59375,40.0,-33.46875,0.0,0.0,0.0
1664548922550,0.17675781,0.24511719,1.3808594,-62.09375,107.3125,-11.90625,-37.625,-41.5,-67.5625
1664548922636,-0.059570312,0.0126953125,1.8964844,-21.6875,92.59375,17.9375,0.0,0.0,0.0
1664548922673,0.5732422,0.064453125,1.2773438,10.25,73.625,46.0625,0.0,0.0,0.0
1664548922706,0.1875,-0.028320312,0.8125,29.71875,118.0,95.8125,0.0,0.0,0.0
1664548922760,0.057617188,-0.17773438,1.0976562,17.875,166.75,51.75,0.0,0.0,0.0
1664548922773,0.047851562,-0.15722656,1.2949219,-8.0625,142.53125,31.90625,0.0,0.0,0.0
1664548922833,-0.08984375,-0.2529297,0.8046875,-8.125,135.125,38.6875,0.0,0.0,0.0
1664548922906,-0.01953125,-0.103515625,0.76464844,8.46875,118.84375,40.375,0.0,0.0,0.0
1664548922933,-0.34375,-0.051757812,0.9296875,14.40625,107.375,33.8125,0.0,0.0,0.0
1664548922979,-0.45410156,-0.16210938,0.84375,22.40625,99.8125,39.21875,0.0,0.0,0.0
1664548923025,-0.5830078,0.06738281,0.8925781,47.84375,83.375,59.375,0.0,0.0,0.0
1664548923104,-0.55859375,-0.015625,0.6376953,26.46875,110.71875,63.34375,0.0,0.0,0.0
1664548923107,-0.9453125,0.1484375,0.6591797,15.6875,122.3125,44.53125,0.0,0.0,0.0
1664548923173,-0.91308594,0.21679688,0.7109375,22.34375,97.84375,33.6875,-74.125,-31.1875,-94.6875
1664548923194,-0.5576172,-0.026367188,0.4921875,75.625,94.84375,15.78125,0.0,0.0,0.0
1664548923229,-0.70410156,0.095703125,0.3076172,125.65625,71.84375,30.0625,0.0,0.0,0.0
1664548923291,-0.640625,0.078125,0.3935547,111.125,80.28125,2.0,0.0,0.0,0.0
1664548923312,-0.8046875,0.16796875,0.40820312,76.90625,94.71875,0.0,0.0,0.0,0.0
1664548923336,-0.7314453,0.17089844,0.13085938,70.84375,97.84375,16.15625,0.0,0.0,0.0
1664548923390,-0.7109375,0.043945312,0.44628906,52.46875,76.3125,22.25,0.0,0.0,0.0
1664548923417,-1.0224609,0.1640625,0.09277344,30.15625,66.53125,-16.4375,0.0,0.0,0.0
1664548923446,-1.1894531,0.6503906,0.140625,43.5625,53.53125,-70.375,0.0,0.0,0.0
1664548923524,-1.0146484,1.0742188,-0.046875,100.75,-20.625,-50.375,0.0,0.0,0.0
1664548923548,-1.1826172,1.7050781,0.3330078,105.71875,-6.34375,10.90625,0.0,0.0,0.0
1664548923586,-0.8203125,0.47753906,0.3203125,-24.46875,2.75,-21.8125,0.0,0.0,0.0
1664548923656,-0.73339844,0.2607422,-0.6904297,-200.03125,16.78125,-40.0625,-76.9375,-31.4375,-126.8125
1664548923683,-0.81640625,-0.45703125,0.052734375,120.1875,47.1875,-81.1875,0.0,0.0,0.0
1664548923704,-0.9375,0.3173828,0.52246094,-62.25,28.75,-92.1875,0.0,0.0,0.0
1664548923753,-0.39257812,1.1123047,-0.7470703,61.75,11.90625,20.1875,0.0,0.0,0.0
1664548923791,-0.9667969,1.0019531,0.46191406,79.59375,-21.21875,137.1875,0.0,0.0,0.0
1664548923829,-0.98046875,-0.6269531,-0.32421875,-170.125,93.9375,-25.34375,0.0,0.0,0.0
1664548923903,-1.0947266,0.028320312,-0.234375,41.625,48.96875,-59.71875,0.0,0.0,0.0
1664548923917,-0.61328125,0.8359375,0.15332031,35.6875,-8.15625,12.9375,0.0,0.0,0.0
1664548923966,-1.1298828,0.07714844,-0.08203125,-0.25,-3.09375,30.625,0.0,0.0,0.0
1664548924032,-1.0351562,0.25976562,-0.12402344,12.9375,22.21875,-21.9375,0.0,0.0,0.0
1664548924059,-0.8330078,0.54003906,-0.03125,1.15625,-2.9375,-8.9375,0.0,0.0,0.0
1664548924122,-0.9404297,0.29492188,-0.14453125,-10.125,-13.1875,12.875,0.0,0.0,0.0
1664548924168,-1.0566406,0.18164062,-0.15917969,11.53125,-6.59375,-0.1875,0.0,0.0,0.0
1664548924182,-0.9345703,0.45214844,-0.16113281,5.96875,-8.34375,-11.25,-76.0625,-34.4375,-131.75
1664548924193,-0.90722656,0.45117188,-0.171875,-14.90625,-10.90625,-1.71875,0.0,0.0,0.0
1664548924262,-1.0078125,0.23925781,-0.18847656,-16.375,-17.3125,3.78125,0.0,0.0,0.0
1664548924295,-0.98828125,0.25683594,-0.15332031,-1.40625,-26.78125,-3.125,0.0,0.0,0.0
1664548924333,-0.90722656,0.4658203,-0.064453125,-14.96875,-35.03125,-3.1875,0.0,0.0,0.0
1664548924398,-0.89160156,0.23632812,-0.01953125,-17.59375,-33.25,6.8125,0.0,0.0,0.0
1664548924433,-0.83691406,0.103515625,0.2783203,10.4375,-1.28125,12.5,0.0,0.0,0.0
1664548924443,-1.0166016,0.38964844,0.5283203,-12.53125,20.875,0.84375,0.0,0.0,0.0
1664548924486,-0.9970703,0.21777344,0.40234375,-31.5,-0.78125,2.25,0.0,0.0,0.0
1664548924508,-1.0429688,0.15136719,0.4033203,-24.59375,-26.3125,-7.78125,0.0,0.0,0.0
1664548924547,-0.95214844,0.22460938,0.3310547,-19.84375,-50.59375,-15.625,0.0,0.0,0.0
1664548924602,-0.8671875,0.25097656,0.234375,-23.03125,-57.1875,-8.875,0.0,0.0,0.0
1664548924619,-0.9042969,0.21875,0.1640625,-10.6875,-72.625,-11.6875,-79.5,-34.625,-120.9375
1664548924638,-0.9033203,0.17382812,0.2109375,-3.5,-82.6875,-11.5,0.0,0.0,0.0
1664548924682,-0.76464844,0.2265625,0.28710938,0.125,-79.15625,-8.6875,0.0,0.0,0.0
1664548924729,-0.91308594,0.3330078,0.27246094,0.90625,-92.65625,0.90625,0.0,0.0,0.0
1664548924759,-0.80566406,0.25390625,0.23144531,-6.40625,-78.25,1.9375,0.0,0.0,0.0
1664548924796,-0.9892578,0.33984375,0.29492188,-19.84375,-73.78125,-11.6875,0.0,0.0,0.0
1664548924819,-0.7871094,0.21386719,0.2734375,-20.09375,-77.6875,-19.4375,0.0,0.0,0.0
1664548924845,-0.79589844,0.26953125,0.35351562,-21.125,-94.15625,-15.625,0.0,0.0,0.0
1664548924895,-0.8251953,0.22167969,0.3828125,-50.0625,-89.21875,-38.34375,0.0,0.0,0.0
1664548924935,-0.76171875,0.13964844,0.390625,-51.53125,-102.28125,-33.875,0.0,0.0,0.0
1664548924951,-0.6220703,0.24804688,0.5292969,-53.84375,-115.03125,-35.84375,0.0,0.0,0.0
1664548924989,-0.59277344,0.0048828125,0.49902344,-63.375,-118.03125,-49.15625,0.0,0.0,0.0
1664548925019,-0.48046875,-0.16015625,0.4873047,-60.0625,-135.90625,-68.375,0.0,0.0,0.0
1664548925056,-0.35742188,-0.03515625,0.4326172,-54.8125,-172.46875,-72.21875,-70.0625,-46.4375,-81.1875
1664548925106,-0.21484375,0.10449219,0.6230469,-23.625,-213.96875,-48.28125,0.0,0.0,0.0
1664548925144,-0.29882812,0.36914062,0.7519531,-66.71875,-204.59375,-26.625,0.0,0.0,0.0
1664548925176,-0.076171875,-0.21386719,0.77441406,-39.4375,-247.625,9.9375,0.0,0.0,0.0
1664548925266,0.09472656,0.02734375,0.8808594,9.09375,-301.125,57.40625,0.0,0.0,0.0
1664548925327,0.2861328,0.009765625,0.9736328,-47.0,-331.28125,98.5625,0.0,0.0,0.0
1664548925330,0.6064453,-0.23730469,0.8496094,-95.53125,-280.875,88.65625,0.0,0.0,0.0
1664548925384,1.0703125,-0.08984375,0.265625,-149.40625,-151.78125,66.6875,0.0,0.0,0.0
1664548925385,2.0136719,-1.984375,0.796875,-72.21875,-7.25,34.96875,0.0,0.0,0.0
1664548925393,1.2060547,0.048828125,0.6738281,143.0,3.0625,127.375,0.0,0.0,0.0
1664548925467,-1.2382812,-0.9785156,0.8300781,58.15625,161.75,87.15625,0.0,0.0,0.0
1664548925477,-0.41210938,0.46484375,0.8330078,90.25,47.625,26.0,0.0,0.0,0.0
1664548925499,-0.047851562,-0.265625,0.7451172,-3.375,20.5625,-22.96875,-21.0,-61.625,-67.5625
1664548925540,-0.12695312,0.040039062,0.36523438,-87.28125,2.5625,-13.8125,0.0,0.0,0.0
1664548925553,1.9951172,-1.984375,1.9931641,-15.5625,164.75,-98.03125,0.0,0.0,0.0
1664548925597,0.8378906,-0.18847656,0.6640625,89.15625,-106.375,66.09375,0.0,0.0,0.0
1664548925642,-0.16113281,-0.36328125,0.25683594,3.53125,18.375,-30.90625,0.0,0.0,0.0
1664548925653,0.74121094,-0.39160156,0.8388672,35.8125,93.6875,-66.375,0.0,0.0,0.0
1664548925682,1.015625,-0.51660156,0.9277344,4.03125,42.5,-88.8125,0.0,0.0,0.0
1664548925753,0.59277344,-0.8359375,0.7314453,-17.71875,20.9375,-59.46875,0.0,0.0,0.0
1664548925783,0.2783203,-0.10546875,0.32421875,66.03125,20.5,-49.46875,0.0,0.0,0.0
1664548925821,0.6796875,0.33203125,0.5996094,13.71875,41.28125,-35.90625,0.0,0.0,0.0
1664548925860,0.3173828,-0.0107421875,0.33496094,-27.84375,56.09375,-2.59375,0.0,0.0,0.0
1664548925901,0.51171875,-0.3515625,0.5810547,6.53125,61.34375,7.5625,0.0,0.0,0.0
1664548925944,0.7363281,-0.61035156,0.95703125,27.875,106.21875,19.875,0.0,0.0,0.0
1664548925990,0.6308594,-0.3125,0.9082031,19.21875,89.78125,6.875,-33.625,-58.625,-63.625
1664548926036,0.08984375,-0.15136719,1.1132812,21.1875,90.15625,16.71875,0.0,0.0,0.0
1664548926077,-0.0087890625,-0.061523438,1.0419922,18.25,75.5,22.03125,0.0,0.0,0.0
1664548926138,-0.12988281,-0.328125,1.2128906,11.78125,35.03125,50.53125,0.0,0.0,0.0
1664548926145,-0.3388672,-0.1640625,1.0625,6.78125,19.53125,36.3125,0.0,0.0,0.0
1664548926157,-0.18164062,-0.31152344,1.1582031,-8.25,17.40625,-10.9375,0.0,0.0,0.0
1664548926204,-0.052734375,-0.13964844,0.90527344,-19.90625,-14.34375,-2.21875,0.0,0.0,0.0
1664548926231,-0.08496094,-0.265625,1.0654297,33.4375,-16.59375,3.46875,0.0,0.0,0.0
1664548926260,0.095703125,-0.26953125,0.9707031,-11.34375,-12.75,0.90625,0.0,0.0,0.0
1664548926320,0.1015625,-0.234375,0.9472656,-4.8125,-12.03125,-3.4375,0.0,0.0,0.0
1664548926362,0.12695312,-0.21484375,1.0224609,9.75,-10.375,-1.34375,0.0,0.0,0.0
1664548926391,0.20703125,-0.27246094,0.9609375,-2.03125,-15.9375,0.46875,0.0,0.0,0.0
1664548926446,0.14453125,-0.25683594,0.94433594,-0.25,-11.84375,0.71875,-38.5625,-54.125,-64.375
1664548926457,0.11328125,-0.25683594,0.96777344,1.03125,-8.78125,-0.3125,0.0,0.0,0.0
1664548926491,0.09667969,-0.23339844,0.9765625,-2.6875,-5.125,-2.34375,0.0,0.0,0.0
1664548926552,0.072265625,-0.20898438,0.98339844,-1.78125,-4.9375,-0.75,0.0,0.0,0.0
1664548926578,0.12109375,-0.22753906,0.96191406,-0.1875,-4.8125,-1.78125,0.0,0.0,0.0
1664548926611,0.087890625,-0.24414062,1.0615234,1.65625,0.9375,-2.8125,0.0,0.0,0.0
1664548926670,0.06933594,-0.25,1.0527344,-4.65625,-1.65625,-3.90625,0.0,0.0,0.0
1664548926697,0.04296875,-0.2421875,0.96191406,-6.125,1.40625,-8.8125,0.0,0.0,0.0
1664548926727,0.13574219,-0.23242188,0.92578125,-9.65625,-3.03125,-13.625,0.0,0.0,0.0
1664548926791,0.25195312,-0.19726562,0.765625,-11.84375,-19.40625,-13.0625,0.0,0.0,0.0
1664548926822,0.40429688,-0.20117188,1.0429688,27.28125,-38.75,-14.1875,0.0,0.0,0.0
1664548926849,0.23925781,-0.35351562,1.0273438,-25.9375,-28.25,-1.53125,0.0,0.0,0.0
1664548926912,0.16308594,-0.12109375,0.9482422,-33.46875,-26.375,-10.6875,0.0,0.0,0.0
1664548926942,0.23144531,-0.20800781,0.89746094,-36.25,-30.8125,0.40625,-36.4375,-57.5625,-63.9375
1664548926970,0.2861328,-0.39257812,0.8769531,-22.65625,-28.5,7.25,0.0,0.0,0.0
1664548927029,0.36914062,-0.36328125,0.875,-13.9375,-30.5625,6.28125,0.0,0.0,0.0
1664548927060,0.34277344,-0.34765625,0.90527344,-6.71875,-23.5,7.0625,0.0,0.0,0.0
1664548927089,0.3095703,-0.30078125,0.9111328,-29.25,-20.0625,-1.125,0.0,0.0,0.0
1664548927152,0.41601562,-0.3017578,0.81347656,-22.28125,-14.53125,0.21875,0.0,0.0,0.0
1664548927181,0.24414062,-0.32421875,0.8300781,-25.21875,-21.78125,12.5625,0.0,0.0,0.0
1664548927209,0.35253906,-0.42578125,0.7675781,-7.5,-13.71875,15.78125,0.0,0.0,0.0
1664548927274,0.234375,-0.3046875,0.91308594,2.125,-11.34375,24.9375,0.0,0.0,0.0
1664548927298,0.26171875,-0.36328125,0.8154297,5.0,4.46875,14.6875,0.0,0.0,0.0
1664548927326,0.36132812,-0.4111328,0.94433594,8.125,16.84375,12.1875,0.0,0.0,0.0
1664548927388,0.25683594,-0.54003906,1.0380859,6.78125,16.4375,13.03125,0.0,0.0,0.0
1664548927449,0.23730469,-0.3408203,0.71191406,19.9375,18.8125,3.90625,-32.5625,-61.4375,-65.75
1664548927452,0.2705078,-0.3232422,1.2373047,0.375,39.6875,6.46875,0.0,0.0,0.0
1664548927510,0.40722656,-0.31347656,0.953125,-26.375,54.09375,8.34375,0.0,0.0,0.0
1664548927541,0.32617188,-0.25390625,1.109375,-35.84375,54.5625,9.1875,0.0,0.0,0.0
1664548927572,0.47070312,-0.5800781,0.8798828,-41.625,23.875,7.125,0.0,0.0,0.0
1664548927629,0.31933594,-0.5419922,0.6230469,-30.09375,-21.0,-0.0625,0.0,0.0,0.0
1664548927659,0.4482422,-0.5908203,0.8955078,-0.625,-32.28125,12.4375,0.0,0.0,0.0
1664548927691,0.28222656,-0.4638672,0.7246094,14.09375,-26.3125,10.3125,0.0,0.0,0.0
1664548927750,0.28515625,-0.46777344,0.87890625,13.1875,-2.96875,-0.5625,0.0,0.0,0.0
1664548927780,0.20703125,-0.55078125,0.86328125,-10.875,-5.59375,0.40625,0.0,0.0,0.0
1664548927810,0.16113281,-0.5253906,0.9316406,-26.3125,-11.03125,-7.59375,0.0,0.0,0.0
1664548927870,0.13085938,-0.61328125,0.9589844,-33.34375,-29.71875,-14.65625,0.0,0.0,0.0
1664548927899,0.3935547,-0.6933594,1.0878906,-34.5,-14.46875,-28.65625,-34.625,-66.4375,-66.375
1664548927929,0.23535156,-0.78515625,1.0664062,-8.1875,-48.28125,-30.15625,0.0,0.0,0.0
1664548927989,0.28808594,-0.67285156,0.8876953,30.75,-90.5,-37.75,0.0,0.0,0.0
1664548928027,0.30664062,-0.48535156,1.0898438,24.46875,-87.875,-26.4375,0.0,0.0,0.0
1664548928050,0.52246094,-0.6455078,0.89160156,31.625,-80.875,-37.78125,0.0,0.0,0.0
1664548928112,0.28515625,-0.92578125,0.8955078,73.1875,-106.625,-55.5625,0.0,0.0,0.0
1664548928142,0.7753906,-0.5908203,0.45996094,113.03125,-98.625,-74.90625,0.0,0.0,0.0
1664548928171,0.703125,-0.32714844,0.42871094,88.6875,-28.1875,-73.3125,0.0,0.0,0.0
1664548928230,0.70214844,0.0107421875,-0.015625,69.75,69.65625,-50.0,0.0,0.0,0.0
1664548928259,0.17675781,0.453125,0.022460938,55.59375,103.71875,-22.34375,0.0,0.0,0.0
1664548928290,0.16015625,0.2939453,0.076171875,-32.78125,147.65625,-38.71875,0.0,0.0,0.0
1664548928352,0.17773438,-0.3779297,1.9931641,-64.03125,98.9375,-14.96875,0.0,0.0,0.0
1664548928381,0.34765625,0.3876953,-0.19042969,59.4375,104.6875,25.25,0.0,0.0,0.0
1664548928409,0.8466797,0.58984375,1.3320312,32.28125,-3.65625,34.71875,-31.9375,-49.625,-62.875
1664548928469,-0.36523438,-0.33496094,0.5,-42.65625,157.96875,32.28125,0.0,0.0,0.0
1664548928497,-0.037109375,-0.3701172,1.4365234,64.25,66.09375,25.875,0.0,0.0,0.0
1664548928529,-0.3017578,0.6328125,1.6513672,83.90625,2.6875,9.09375,0.0,0.0,0.0
1664548928592,-0.13085938,0.087890625,1.1679688,27.28125,-27.03125,-4.46875,0.0,0.0,0.0
1664548928621,-0.043945312,-0.02734375,1.1298828,10.75,-10.75,-13.75,0.0,0.0,0.0
1664548928650,-0.09472656,0.21386719,0.8964844,26.71875,2.5625,-6.0,0.0,0.0,0.0
1664548928712,0.0126953125,0.2890625,1.4589844,6.21875,37.0,-18.5625,0.0,0.0,0.0
1664548928739,-0.22851562,0.018554688,1.4707031,-4.28125,59.9375,-13.3125,0.0,0.0,0.0
1664548928771,0.19824219,0.11621094,1.5566406,14.09375,37.25,3.15625,0.0,0.0,0.0
1664548928832,0.31054688,0.08300781,1.1699219,4.75,36.1875,33.96875,0.0,0.0,0.0
1664548928859,0.21191406,0.13378906,0.9746094,-11.65625,88.4375,43.625,0.0,0.0,0.0
1664548928889,0.1328125,-0.1875,0.95996094,-12.53125,126.96875,13.09375,-48.125,-45.5625,-68.125
1664548928950,0.01953125,0.05078125,1.109375,-17.34375,93.03125,-1.78125,0.0,0.0,0.0
1664548928980,0.13574219,-0.07128906,0.83203125,-36.875,117.75,-5.21875,0.0,0.0,0.0
1664548929012,-0.115234375,-0.203125,0.8339844,-20.34375,103.46875,3.03125,0.0,0.0,0.0
1664548929071,-0.37402344,-0.001953125,0.8886719,13.3125,78.3125,1.75,0.0,0.0,0.0
1664548929098,-0.27929688,-0.16210938,0.86621094,-0.0625,89.0625,-3.0,0.0,0.0,0.0
1664548929127,-0.67285156,-0.12988281,0.86035156,11.59375,74.46875,-6.90625,0.0,0.0,0.0
1664548929192,-0.30664062,-0.16894531,0.76171875,27.75,74.90625,-21.5625,0.0,0.0,0.0
1664548929221,-0.48242188,0.09082031,0.84765625,27.34375,73.25,-8.8125,0.0,0.0,0.0
1664548929255,-0.66015625,-0.15625,0.7841797,17.875,89.78125,-1.46875,0.0,0.0,0.0
1664548929308,-0.94433594,0.1171875,0.6503906,46.5,63.375,17.625,0.0,0.0,0.0
1664548929339,-0.515625,0.0859375,0.6894531,35.40625,82.15625,8.78125,0.0,0.0,0.0
1664548929370,-0.8359375,0.0390625,0.5390625,4.5625,103.59375,16.21875,0.0,0.0,0.0
1664548929428,-0.7578125,0.20507812,0.3330078,14.75,112.6875,20.0625,-78.0,-42.6875,-95.0
1664548929493,-0.4873047,0.0703125,0.51660156,13.59375,165.28125,18.21875,0.0,0.0,0.0
1664548929498,-1.9863281,0.13476562,-0.3310547,-65.5625,161.5,13.78125,0.0,0.0,0.0
1664548929549,-0.109375,0.4873047,0.63378906,79.71875,58.65625,33.90625,0.0,0.0,0.0
1664548929578,-0.42089844,0.3388672,0.4716797,45.65625,99.3125,66.4375,0.0,0.0,0.0
1664548929606,-0.98828125,0.015625,0.515625,56.375,93.15625,78.0,0.0,0.0,0.0
1664548929672,-0.55078125,0.10058594,0.5,11.59375,25.09375,62.71875,0.0,0.0,0.0
1664548929731,-0.38671875,-0.052734375,0.4501953,23.8125,14.96875,-4.28125,0.0,0.0,0.0
1664548929737,0.034179688,-0.19433594,-1.1367188,-28.875,233.40625,-30.09375,0.0,0.0,0.0
1664548929791,-1.9863281,1.9765625,0.8330078,247.375,232.125,94.28125,0.0,0.0,0.0
1664548929820,0.41308594,0.33789062,-0.8652344,-20.28125,81.84375,-99.0,0.0,0.0,0.0
1664548929856,-0.7988281,0.36132812,0.111328125,-85.625,-44.65625,23.96875,0.0,0.0,0.0
1664548929908,-1.1972656,-0.5917969,-0.2734375,36.6875,91.5,-28.09375,-76.0625,-32.6875,-130.6875
1664548929938,-0.93066406,0.4970703,0.033203125,57.625,-10.0625,4.125,0.0,0.0,0.0
1664548929969,-0.89746094,0.453125,-0.22851562,30.4375,12.09375,3.71875,0.0,0.0,0.0
1664548930032,-0.85253906,0.42285156,-0.036132812,19.84375,24.96875,-0.375,0.0,0.0,0.0
1664548930062,-1.0439453,0.23535156,-0.18359375,-4.28125,16.4375,-0.0625,0.0,0.0,0.0
1664548930091,-0.96875,0.2939453,-0.18164062,2.5625,9.15625,-5.25,0.0,0.0,0.0
1664548930154,-0.9042969,0.42578125,-0.15039062,-13.5,6.46875,-3.0,0.0,0.0,0.0
1664548930177,-0.95214844,0.26953125,-0.16503906,-21.5,12.15625,-0.875,0.0,0.0,0.0
1664548930208,-0.9609375,0.28027344,-0.18847656,-8.375,10.25,-2.625,0.0,0.0,0.0
1664548930270,-0.94628906,0.3408203,-0.17871094,-10.8125,6.84375,-2.15625,0.0,0.0,0.0
1664548930298,-0.9609375,0.3095703,-0.17871094,-12.625,2.09375,0.71875,0.0,0.0,0.0
1664548930331,-0.9638672,0.2685547,-0.16992188,-10.75,-0.46875,-1.34375,0.0,0.0,0.0
1664548930391,-0.9638672,0.30566406,-0.20019531,-7.15625,-5.375,-2.75,0.0,0.0,0.0
1664548930421,-0.9394531,0.3408203,-0.17480469,-11.40625,-7.0,-1.40625,-72.875,-34.4375,-135.5
1664548930453,-0.94921875,0.3017578,-0.14160156,-12.75,-7.4375,-1.25,0.0,0.0,0.0
1664548930509,-0.9375,0.3359375,-0.11621094,-16.84375,-9.6875,-1.65625,0.0,0.0,0.0
1664548930538,-0.9550781,0.2763672,-0.0859375,-14.59375,-11.59375,-0.0625,0.0,0.0,0.0
1664548930569,-0.92089844,0.30273438,-0.07714844,3.34375,-15.4375,3.03125,0.0,0.0,0.0
1664548930632,-0.9511719,0.29296875,-0.083984375,3.65625,-11.40625,6.75,0.0,0.0,0.0
1664548930659,-0.96972656,0.31347656,-0.09082031,33.5625,-15.625,4.375,0.0,0.0,0.0
1664548930688,-0.91503906,0.35546875,-0.076171875,27.03125,-22.875,3.59375,0.0,0.0,0.0
1664548930752,-1.0048828,0.3486328,-0.0859375,25.375,-30.09375,1.28125,0.0,0.0,0.0
1664548930779,-0.9716797,0.31445312,-0.05859375,23.84375,-37.71875,-3.0625,0.0,0.0,0.0
1664548930809,-0.9716797,0.3095703,-0.0390625,25.9375,-47.125,-9.0625,0.0,0.0,0.0
1664548930872,-0.95410156,0.27246094,-0.021484375,26.4375,-35.5625,-7.65625,0.0,0.0,0.0
1664548930898,-0.8964844,0.27734375,-0.001953125,17.625,-36.5,-12.53125,-77.6875,-36.125,-129.5
1664548930929,-0.95703125,0.16015625,0.028320312,43.28125,-60.84375,-3.875,0.0,0.0,0.0
1664548930987,-1.0449219,0.31445312,0.26464844,35.9375,-64.09375,-9.90625,0.0,0.0,0.0
1664548931022,-0.7109375,0.22753906,0.47753906,18.65625,-94.40625,-0.3125,0.0,0.0,0.0
1664548931079,-0.796875,0.3359375,0.38476562,-28.8125,-86.84375,5.125,0.0,0.0,0.0
1664548931108,-0.68066406,0.14746094,0.5107422,-66.0,-95.03125,-14.90625,0.0,0.0,0.0
1664548931139,-0.39941406,0.17089844,0.45996094,-51.65625,-129.4375,5.84375,0.0,0.0,0.0
1664548931168,-0.6386719,0.064453125,0.6748047,-66.0,-130.78125,17.6875,0.0,0.0,0.0
1664548931231,-0.74316406,-0.080078125,0.0546875,-100.59375,-92.09375,-36.34375,0.0,0.0,0.0
1664548931259,-0.8466797,0.13476562,0.703125,-54.03125,-121.8125,-44.15625,0.0,0.0,0.0
1664548931289,-0.67285156,0.32128906,0.3466797,-31.9375,-120.71875,-36.28125,0.0,0.0,0.0
1664548931349,-0.5996094,0.19140625,0.4423828,-63.65625,-90.15625,-26.4375,0.0,0.0,0.0
1664548931379,-0.7558594,0.10644531,0.6591797,-47.75,-120.96875,-14.53125,0.0,0.0,0.0
1664548931409,-0.55859375,0.045898438,0.73046875,-29.71875,-113.625,-9.65625,-72.875,-43.3125,-84.9375
1664548931468,-0.61328125,0.034179688,0.859375,-27.78125,-106.6875,-6.3125,0.0,0.0,0.0
1664548931499,-0.29296875,0.034179688,0.7626953,-33.40625,-80.1875,-15.28125,0.0,0.0,0.0
1664548931528,-0.47558594,-0.013671875,0.86328125,-45.96875,-83.4375,-17.15625,0.0,0.0,0.0
1664548931592,-0.30664062,-0.15917969,0.9785156,-32.96875,-109.78125,-13.3125,0.0,0.0,0.0
1664548931620,-0.12109375,-0.022460938,1.0029297,-17.28125,-98.75,-1.1875,0.0,0.0,0.0
1664548931648,-0.5732422,-0.18554688,1.3710938,-51.34375,-88.5625,-9.21875,0.0,0.0,0.0
1664548931708,-0.33496094,-0.3154297,1.3427734,2.25,-116.09375,-23.8125,0.0,0.0,0.0
1664548931739,0.047851562,0.15820312,1.8183594,44.3125,-139.65625,31.125,0.0,0.0,0.0
1664548931768,-0.4189453,0.26757812,1.5439453,38.15625,-90.3125,54.375,0.0,0.0,0.0
1664548931832,-0.5185547,0.12792969,1.3710938,19.09375,-119.625,44.59375,0.0,0.0,0.0
1664548931860,-0.25390625,0.13085938,0.79296875,-17.71875,-118.53125,30.9375,0.0,0.0,0.0
1664548931889,-0.3173828,-0.04296875,0.7832031,-46.34375,-107.96875,13.09375,-35.5625,-47.5,-66.1875
1664548932014,-0.032226562,0.0,0.7236328,-28.75,-134.09375,4.0625,0.0,0.0,0.0
1664548932020,0.0,0.034179688,0.8574219,-52.5,-133.46875,2.65625,0.0,0.0,0.0
1664548932026,0.15429688,-0.09082031,0.9580078,-60.5,-139.59375,-30.96875,0.0,0.0,0.0
1664548932070,0.40820312,0.043945312,0.8261719,-107.78125,-111.1875,-51.90625,0.0,0.0,0.0
1664548932097,0.47558594,-0.21972656,0.4951172,-130.75,-65.375,-72.03125,0.0,0.0,0.0
1664548932162,0.28710938,-0.42578125,0.19042969,22.6875,-29.78125,-65.9375,0.0,0.0,0.0
1664548932257,1.4902344,-0.055664062,0.734375,74.8125,-37.15625,-54.9375,0.0,0.0,0.0
1664548932303,0.7998047,0.0078125,0.63964844,6.34375,-34.96875,14.5625,0.0,0.0,0.0
1664548932320,1.1503906,-0.19726562,0.17871094,-13.9375,-4.6875,43.375,0.0,0.0,0.0
1664548932380,0.74316406,0.10449219,0.49804688,-18.8125,54.875,60.71875,0.0,0.0,0.0
1664548932415,0.4658203,-0.17480469,0.46875,2.1875,26.625,106.25,0.0,0.0,0.0
1664548932444,0.3046875,-0.43359375,1.0957031,-4.78125,8.625,109.53125,0.0,0.0,0.0
1664548932488,0.8457031,-1.0664062,0.48632812,53.875,-100.9375,75.375,-10.9375,-59.6875,-69.5
1664548932514,2.0136719,-0.7470703,0.71875,98.875,134.84375,-74.53125,0.0,0.0,0.0
1664548932540,-0.07714844,0.3671875,0.21582031,-13.875,-91.0625,102.59375,0.0,0.0,0.0
1664548932588,0.19726562,-0.49121094,0.4765625,-55.96875,46.28125,-6.0,0.0,0.0,0.0
1664548932619,1.1376953,-0.7861328,0.80566406,-54.21875,62.3125,-6.84375,0.0,0.0,0.0
1664548932646,0.9199219,-0.8652344,0.7998047,-50.71875,39.375,-13.03125,0.0,0.0,0.0
1664548932705,0.3828125,-0.5966797,0.38867188,23.375,43.78125,-19.78125,0.0,0.0,0.0
1664548932739,0.5703125,-0.11621094,0.5810547,31.90625,45.84375,-31.21875,0.0,0.0,0.0
1664548932773,0.46484375,-0.4375,0.36621094,-12.15625,53.53125,-8.75,0.0,0.0,0.0
1664548932866,0.23632812,-0.39160156,0.37109375,45.59375,46.5625,-7.28125,0.0,0.0,0.0
1664548932868,0.69921875,-0.55371094,1.03125,69.875,44.375,-15.53125,0.0,0.0,0.0
1664548932910,0.9892578,-0.22363281,1.1103516,64.25,3.78125,-0.375,0.0,0.0,0.0
1664548932955,0.7050781,-0.05078125,0.8339844,37.09375,-8.125,17.625,-17.6875,-56.1875,-65.0
1664548932981,0.5185547,-0.17871094,0.36132812,1.03125,28.8125,-7.21875,0.0,0.0,0.0
1664548933015,0.5595703,-0.3125,0.7138672,-3.25,39.375,-20.9375,0.0,0.0,0.0
1664548933077,0.5839844,-0.28710938,0.6875,-10.3125,65.1875,-29.9375,0.0,0.0,0.0
1664548933118,0.4658203,-0.25683594,0.8486328,14.34375,68.1875,-19.125,0.0,0.0,0.0
1664548933149,0.41503906,-0.06738281,0.80078125,15.5,86.5625,-12.03125,0.0,0.0,0.0
1664548933196,0.375,-0.046875,0.7324219,4.28125,105.0625,-9.15625,0.0,0.0,0.0
1664548933202,0.23925781,-0.16308594,0.7763672,12.625,128.65625,6.6875,0.0,0.0,0.0
1664548933236,0.045898438,-0.21386719,1.0361328,39.96875,148.4375,18.28125,0.0,0.0,0.0
1664548933292,-0.0029296875,-0.103515625,1.1503906,-9.59375,144.46875,11.28125,0.0,0.0,0.0
1664548933333,-0.5566406,-0.043945312,1.4189453,13.90625,111.625,10.1875,0.0,0.0,0.0
1664548933373,-0.76171875,-0.07910156,1.5107422,-69.65625,-20.125,-1.71875,0.0,0.0,0.0
1664548933424,0.09472656,-0.16699219,1.0214844,29.53125,-74.46875,34.84375,0.0,0.0,0.0
1664548933459,0.0029296875,-0.29003906,0.81640625,25.875,-49.8125,30.8125,-44.375,-50.6875,-65.625
1664548933501,0.044921875,-0.22949219,0.7685547,-25.53125,2.9375,-6.0625,0.0,0.0,0.0
1664548933583,0.09472656,-0.19628906,1.0117188,-16.5,22.40625,-13.6875,0.0,0.0,0.0
1664548933619,-0.001953125,-0.18652344,1.0625,16.34375,6.15625,-6.59375,0.0,0.0,0.0
1664548933650,0.036132812,-0.20996094,1.0234375,-6.15625,2.875,-8.6875,0.0,0.0,0.0
1664548933724,-0.01953125,-0.21289062,1.1445312,2.0,-13.53125,-1.65625,0.0,0.0,0.0
1664548933763,0.025390625,-0.21484375,1.0019531,6.9375,-24.03125,1.9375,0.0,0.0,0.0
1664548933793,0.080078125,-0.18359375,0.8964844,13.40625,-19.40625,-1.125,0.0,0.0,0.0
1664548933847,0.0859375,-0.14355469,0.9326172,7.1875,-6.40625,-5.4375,0.0,0.0,0.0
1664548933861,0.09082031,-0.11816406,1.0029297,2.9375,5.4375,-7.65625,0.0,0.0,0.0
1664548933896,0.076171875,-0.11621094,0.99121094,2.6875,7.09375,-7.59375,0.0,0.0,0.0
1664548933989,-0.060546875,-0.11621094,1.0898438,3.09375,8.6875,-3.8125,0.0,0.0,0.0
1664548934039,-0.043945312,-0.13769531,1.0214844,-5.8125,2.3125,-4.90625,-44.6875,-51.875,-66.0625
1664548934081,0.061523438,-0.08691406,0.9785156,-16.125,-0.59375,-7.03125,0.0,0.0,0.0
1664548934152,0.111328125,-0.12109375,0.9296875,-25.09375,-12.3125,-5.375,0.0,0.0,0.0
1664548934192,0.2890625,-0.17089844,1.0136719,9.15625,-28.25,-5.625,0.0,0.0,0.0
1664548934221,0.001953125,-0.26464844,1.2119141,-11.0,-40.65625,-0.125,0.0,0.0,0.0
1664548934285,-0.041015625,-0.23632812,0.96875,-4.9375,-39.46875,-7.03125,0.0,0.0,0.0
1664548934329,0.18261719,-0.0859375,0.9326172,-3.59375,-53.03125,-8.25,0.0,0.0,0.0
1664548934365,0.26171875,-0.19238281,0.95996094,-6.71875,-53.21875,3.59375,0.0,0.0,0.0
1664548934449,0.28710938,-0.17871094,0.8925781,-18.875,-46.1875,5.71875,0.0,0.0,0.0
1664548934452,0.359375,-0.2529297,0.8574219,-15.75,-45.90625,8.59375,0.0,0.0,0.0
1664548934453,0.43847656,-0.24023438,0.90234375,-22.46875,-46.1875,10.65625,0.0,0.0,0.0
1664548934492,0.45703125,-0.22265625,0.8798828,-29.0625,-43.75,22.9375,0.0,0.0,0.0
1664548934562,0.30859375,-0.24804688,0.82714844,-35.96875,-32.28125,19.53125,0.0,0.0,0.0
1664548934564,0.3359375,-0.36035156,0.7832031,-12.46875,-22.28125,24.75,-28.9375,-57.5625,-66.0625
1664548934602,0.2705078,-0.27539062,0.90722656,-0.0625,-13.40625,21.53125,0.0,0.0,0.0
1664548934647,0.26953125,-0.30566406,1.0400391,3.59375,1.84375,5.28125,0.0,0.0,0.0
1664548934682,0.21875,-0.37109375,0.9433594,6.28125,13.25,-9.65625,0.0,0.0,0.0
1664548934784,0.3359375,-0.26171875,1.1376953,10.96875,24.46875,-6.65625,0.0,0.0,0.0
1664548934846,0.38867188,-0.4169922,0.9013672,-0.5,24.0625,8.21875,0.0,0.0,0.0
1664548934849,0.40722656,-0.32714844,0.8417969,9.6875,14.84375,16.03125,0.0,0.0,0.0
1664548934939,0.55859375,-0.18847656,0.796875,21.90625,29.4375,44.78125,0.0,0.0,0.0
1664548934970,0.51660156,-0.36328125,1.1181641,-12.15625,14.90625,49.71875,0.0,0.0,0.0
1664548935017,0.5683594,-0.4033203,0.80566406,-22.21875,-42.28125,6.8125,0.0,0.0,0.0
1664548935069,0.55078125,-0.5283203,0.8046875,-66.96875,-65.96875,-2.21875,0.0,0.0,0.0
1664548935103,0.50878906,-0.6015625,0.8105469,-47.5625,-62.84375,-2.09375,0.0,0.0,0.0
1664548935126,0.71777344,-0.5439453,1.0078125,-14.71875,-48.6875,-13.25,-27.75,-60.875,-67.5625
1664548935175,0.4267578,-0.5566406,1.2138672,-12.8125,-45.15625,-17.84375,0.0,0.0,0.0
1664548935202,0.30371094,-0.71191406,0.93652344,-29.5,-78.25,-41.21875,0.0,0.0,0.0
1664548935217,0.6435547,-0.46875,0.8076172,-2.3125,8.375,-95.09375,0.0,0.0,0.0
1664548935272,0.84277344,-0.40429688,0.5097656,64.3125,-12.125,-56.46875,0.0,0.0,0.0
1664548935305,0.6425781,-0.49804688,0.7246094,72.0625,-38.6875,-3.0625,0.0,0.0,0.0
1664548935323,0.36328125,-0.39941406,0.6328125,16.59375,-31.5,-29.8125,0.0,0.0,0.0
1664548935380,0.20800781,-0.20800781,0.49804688,71.53125,31.875,-52.1875,0.0,0.0,0.0
1664548935409,0.2734375,0.21875,0.5878906,38.4375,47.1875,-34.25,0.0,0.0,0.0
1664548935439,0.3017578,0.08886719,0.80078125,6.21875,54.5625,-12.34375,0.0,0.0,0.0
1664548935496,0.28027344,-0.35058594,0.7636719,-0.90625,48.53125,-16.9375,0.0,0.0,0.0
1664548935528,0.38964844,-0.0068359375,0.64160156,1.15625,80.4375,-19.5,0.0,0.0,0.0
1664548935560,0.3486328,-0.3095703,0.69433594,-27.34375,108.53125,-30.28125,0.0,0.0,0.0
1664548935634,0.0126953125,-0.34960938,0.7138672,-1.65625,90.34375,-1.84375,-31.625,-52.4375,-64.875
1664548935653,0.123046875,0.09472656,0.91503906,-11.0625,84.78125,-31.75,0.0,0.0,0.0
1664548935670,0.12109375,-0.31347656,0.84375,-11.59375,81.5625,-50.375,0.0,0.0,0.0
1664548935760,-0.078125,-0.3330078,0.890625,41.5,50.0625,-52.5,0.0,0.0,0.0
1664548935799,0.10546875,0.14160156,1.0136719,39.90625,45.40625,-50.96875,0.0,0.0,0.0
1664548935840,0.0048828125,0.0859375,0.9003906,17.28125,55.125,-39.3125,0.0,0.0,0.0
1664548935907,-0.12695312,0.08691406,1.0585938,1.53125,54.8125,-8.1875,0.0,0.0,0.0
1664548935929,-0.13183594,-0.03125,1.1152344,26.4375,53.65625,11.03125,0.0,0.0,0.0
1664548935938,-0.18847656,0.12890625,1.1191406,25.3125,40.59375,19.875,0.0,0.0,0.0
1664548936001,-0.14941406,0.19140625,1.1621094,3.28125,43.90625,22.9375,0.0,0.0,0.0
1664548936045,-0.32226562,0.053710938,1.1835938,-10.5625,42.125,23.375,0.0,0.0,0.0
1664548936081,-0.29589844,-0.005859375,1.0888672,2.125,15.21875,29.65625,0.0,0.0,0.0
1664548936144,-0.16992188,0.10253906,1.0185547,9.6875,-7.125,31.25,-50.5625,-51.4375,-69.625
1664548936180,-9.765625E-4,0.0546875,0.8154297,-6.78125,4.28125,18.71875,0.0,0.0,0.0
1664548936211,0.1484375,0.028320312,0.7861328,-10.03125,10.125,20.84375,0.0,0.0,0.0
1664548936280,0.028320312,-0.23144531,0.9628906,14.75,18.625,23.84375,0.0,0.0,0.0
1664548936301,-0.30371094,0.08886719,1.5107422,2.4375,1.15625,-1.125,0.0,0.0,0.0
1664548936313,-0.13476562,0.10058594,1.2617188,-5.9375,6.96875,-33.15625,0.0,0.0,0.0
1664548936383,-0.46289062,0.049804688,0.9169922,-29.71875,1.21875,-33.21875,0.0,0.0,0.0
1664548936409,-0.6152344,-0.08105469,1.0195312,-28.15625,-25.9375,-26.6875,0.0,0.0,0.0
1664548936426,-0.4091797,0.0703125,1.2099609,-26.0,-56.34375,-25.96875,0.0,0.0,0.0
1664548936479,-0.0546875,-0.20214844,1.2880859,-24.0625,-3.28125,-50.4375,0.0,0.0,0.0
1664548936515,0.13574219,-0.31835938,1.3808594,-11.96875,59.34375,-47.875,0.0,0.0,0.0
1664548936552,0.0087890625,-0.2578125,1.3525391,8.46875,96.75,-51.90625,0.0,0.0,0.0
1664548936613,0.1171875,-0.36328125,1.3486328,-36.1875,119.03125,-95.09375,0.0,0.0,0.0
1664548936634,0.10449219,-0.12890625,0.9316406,-1.84375,117.9375,-112.5,-56.875,-57.125,-73.375
1664548936665,-0.06542969,0.23730469,0.6953125,-19.40625,119.40625,-74.34375,0.0,0.0,0.0
1664548936694,-0.4736328,-0.3779297,0.765625,2.1875,108.65625,-31.09375,0.0,0.0,0.0
1664548936730,-0.41992188,0.13574219,0.94433594,52.3125,68.84375,-24.90625,0.0,0.0,0.0
1664548936732,-0.22265625,0.06542969,0.8466797,-23.25,76.78125,11.53125,0.0,0.0,0.0
1664548936788,-0.5253906,-0.3623047,0.9316406,-17.71875,59.46875,39.90625,0.0,0.0,0.0
1664548936817,-0.5390625,-0.22167969,0.8261719,9.5625,87.78125,37.71875,0.0,0.0,0.0
1664548936839,-0.57714844,0.00390625,0.8613281,24.34375,71.90625,56.9375,0.0,0.0,0.0
1664548936873,-0.9003906,-0.043945312,0.8173828,-5.75,85.53125,56.125,0.0,0.0,0.0
1664548936887,-0.99609375,-0.21777344,0.48535156,15.9375,97.0625,43.5,0.0,0.0,0.0
1664548936910,-0.953125,0.037109375,0.3720703,55.84375,84.125,49.71875,0.0,0.0,0.0
1664548936956,-1.0742188,0.15234375,0.5810547,58.03125,85.6875,56.375,0.0,0.0,0.0
1664548936972,-0.9013672,0.10449219,0.19921875,6.78125,59.625,36.46875,-79.5,-49.1875,-99.5
1664548936995,0.09472656,-0.11621094,0.74316406,82.9375,21.125,30.875,0.0,0.0,0.0
1664548937032,-0.3876953,0.016601562,0.5498047,56.15625,4.71875,57.0625,0.0,0.0,0.0
1664548937048,-0.8125,0.41210938,0.625,20.0,24.59375,27.5625,0.0,0.0,0.0
1664548937070,-0.72558594,0.15820312,0.3935547,-10.6875,18.1875,37.46875,0.0,0.0,0.0
1664548937119,-0.8359375,0.12207031,0.47460938,1.46875,17.40625,48.625,0.0,0.0,0.0
1664548937139,-0.9482422,-0.052734375,0.5185547,23.5,-1.03125,38.0,0.0,0.0,0.0
1664548937186,-1.0546875,-0.203125,0.20605469,27.53125,-7.25,8.34375,0.0,0.0,0.0
1664548937235,-0.78515625,0.29101562,0.6640625,90.625,-26.3125,-17.59375,0.0,0.0,0.0
1664548937266,-0.84277344,0.8017578,0.50878906,35.875,19.65625,-27.53125,0.0,0.0,0.0
1664548937288,-0.7480469,0.5644531,0.4736328,-34.0,60.0,-9.46875,0.0,0.0,0.0
1664548937352,-0.75390625,0.546875,0.47753906,-31.625,56.03125,-7.34375,0.0,0.0,0.0
1664548937382,-0.73828125,0.24511719,0.5595703,18.625,50.0625,7.0625,0.0,0.0,0.0
1664548937415,-0.79296875,0.22949219,0.65722656,23.3125,34.375,27.03125,-81.4375,-39.6875,-106.5625
1664548937473,-0.95214844,0.3828125,0.5566406,34.71875,8.78125,13.34375,0.0,0.0,0.0
1664548937502,-0.7519531,0.45507812,0.5761719,55.40625,-12.4375,11.40625,0.0,0.0,0.0
1664548937541,-0.7011719,0.4765625,0.5917969,29.90625,-4.21875,10.84375,0.0,0.0,0.0
1664548937588,-0.55859375,0.52246094,0.3779297,15.3125,1.65625,8.15625,0.0,0.0,0.0
1664548937621,-0.49609375,0.5625,0.19433594,-0.1875,26.8125,11.03125,0.0,0.0,0.0
1664548937686,-0.5732422,0.49316406,0.29003906,-31.25,88.15625,2.4375,0.0,0.0,0.0
1664548937782,-0.8183594,0.41308594,0.28515625,-38.15625,150.09375,-17.28125,0.0,0.0,0.0
1664548937811,-1.8378906,0.3515625,0.31347656,-92.53125,176.8125,-73.5,0.0,0.0,0.0
1664548937840,-1.0410156,0.18847656,0.88183594,-90.875,81.0,-30.96875,0.0,0.0,0.0
1664548937884,-0.022460938,0.6425781,-0.09082031,-60.3125,89.5,-61.96875,0.0,0.0,0.0
1664548937893,-1.6425781,-0.60839844,-0.5644531,-141.0625,83.4375,28.0,0.0,0.0,0.0
1664548937920,-1.1005859,-0.06640625,0.36328125,-19.0625,80.34375,-36.5625,-78.75,-40.625,-129.8125
1664548937983,-0.85058594,0.09863281,-0.0029296875,-12.46875,10.1875,-7.15625,0.0,0.0,0.0
1664548937999,-1.1875,0.08300781,0.10058594,-36.6875,28.28125,-1.0625,0.0,0.0,0.0
1664548938026,-1.0419922,0.029296875,0.16601562,-33.8125,6.78125,-6.65625,0.0,0.0,0.0
1664548938107,-0.9121094,0.01171875,-0.19042969,-13.625,-6.71875,2.0,0.0,0.0,0.0
1664548938140,-0.9433594,0.10839844,0.0068359375,3.59375,16.5625,8.84375,0.0,0.0,0.0
1664548938171,-1.0078125,0.06738281,0.013671875,3.65625,35.84375,9.75,0.0,0.0,0.0
1664548938231,-1.0742188,-0.051757812,0.026367188,11.53125,19.0625,17.875,0.0,0.0,0.0
1664548938271,-1.0761719,0.09765625,0.09765625,-3.0,-4.3125,15.90625,0.0,0.0,0.0
1664548938285,-0.99609375,0.2939453,-0.0146484375,-15.625,-27.59375,4.5625,0.0,0.0,0.0
1664548938308,-1.1875,0.23632812,0.08984375,7.875,-53.40625,8.21875,0.0,0.0,0.0
1664548938338,-1.234375,0.29003906,-0.076171875,-6.34375,-83.0,14.15625,0.0,0.0,0.0
1664548938371,-1.1357422,0.4951172,-0.171875,-36.3125,-104.65625,13.03125,0.0,0.0,0.0
1664548938456,-0.87402344,0.57910156,-0.029296875,-76.65625,-120.96875,6.34375,-79.8125,-35.6875,-125.0
1664548938489,-0.96875,0.20605469,0.25390625,34.28125,-115.15625,29.65625,0.0,0.0,0.0
1664548938515,-0.7636719,0.20800781,0.028320312,-5.375,-19.9375,-7.53125,0.0,0.0,0.0
1664548938577,-0.4765625,0.18359375,-0.05078125,-24.84375,62.8125,-22.96875,0.0,0.0,0.0
1664548938602,-0.6982422,0.47265625,-0.37109375,-24.125,111.75,-13.3125,0.0,0.0,0.0
1664548938643,-1.7294922,0.74316406,0.5673828,0.40625,41.875,19.09375,0.0,0.0,0.0
1664548938720,-0.9296875,0.041992188,0.020507812,-45.84375,-73.40625,-3.25,0.0,0.0,0.0
1664548938749,-0.66503906,0.75097656,-0.08496094,-45.53125,-0.0625,14.625,0.0,0.0,0.0
1664548938786,-1.5097656,-0.11328125,0.24609375,-13.6875,-23.3125,16.65625,0.0,0.0,0.0
1664548938823,-0.9638672,0.2783203,0.103515625,-13.6875,6.53125,-24.6875,0.0,0.0,0.0
1664548938879,-0.8828125,0.4091797,0.0390625,9.40625,-28.8125,-13.0625,0.0,0.0,0.0
1664548938881,-0.8154297,0.32910156,0.16308594,7.9375,-42.34375,14.8125,0.0,0.0,0.0
1664548938924,-1.1171875,0.036132812,0.15136719,13.53125,-19.9375,12.4375,-79.5,-36.6875,-117.5
1664548938958,-0.97265625,0.19042969,0.23144531,8.84375,-21.28125,0.65625,0.0,0.0,0.0
1664548938991,-0.8574219,0.2783203,0.24121094,8.84375,-8.34375,-10.875,0.0,0.0,0.0
1664548939036,-0.88378906,0.25390625,0.29589844,-11.46875,15.5,-12.03125,0.0,0.0,0.0
1664548939076,-1.0371094,0.07519531,0.19433594,3.46875,6.21875,-2.46875,0.0,0.0,0.0
1664548939090,-0.6142578,0.25195312,0.6298828,-18.9375,-20.875,-7.875,0.0,0.0,0.0
1664548939165,-1.1210938,0.11328125,0.7841797,-17.9375,-53.8125,11.75,0.0,0.0,0.0
1664548939209,-0.7714844,0.140625,0.4638672,-28.875,-94.90625,3.71875,0.0,0.0,0.0
1664548939223,-0.5576172,-0.1640625,0.6357422,1.21875,-150.4375,-14.65625,0.0,0.0,0.0
1664548939292,0.055664062,-0.051757812,0.40625,-19.125,-170.59375,-11.25,0.0,0.0,0.0
1664548939333,-0.8046875,0.13476562,0.6875,-33.46875,-178.21875,-39.375,0.0,0.0,0.0
1664548939359,-0.34765625,0.0048828125,0.6064453,-8.5,-191.28125,-22.0625,0.0,0.0,0.0
1664548939415,-0.4453125,0.17480469,0.46484375,-27.34375,-189.9375,-38.78125,0.0,0.0,0.0
1664548939443,-0.65722656,0.20703125,0.49609375,-34.90625,-212.46875,-14.25,-70.375,-41.1875,-82.25
1664548939476,-0.4765625,0.09863281,0.5605469,-22.34375,-213.5,-2.40625,0.0,0.0,0.0
1664548939528,-0.30273438,0.17089844,0.8388672,-7.03125,-244.9375,11.71875,0.0,0.0,0.0
1664548939550,-0.15625,0.12695312,1.0019531,-21.6875,-243.65625,25.75,0.0,0.0,0.0
1664548939569,0.08886719,0.12109375,1.0761719,-7.8125,-281.1875,45.46875,0.0,0.0,0.0
1664548939644,0.25,0.16601562,1.0478516,-36.9375,-280.625,72.625,0.0,0.0,0.0
1664548939676,0.265625,0.14550781,1.1455078,-49.4375,-251.53125,104.71875,0.0,0.0,0.0
1664548939707,0.6933594,-0.09082031,1.1201172,-42.5,-243.46875,108.375,0.0,0.0,0.0
1664548939752,0.8876953,-0.044921875,1.0292969,-108.34375,-183.90625,109.375,0.0,0.0,0.0
1664548939825,0.73535156,-0.33984375,0.74121094,-151.25,-62.8125,81.09375,0.0,0.0,0.0
1664548939827,1.0947266,-0.82714844,0.17480469,-86.4375,29.0,52.09375,0.0,0.0,0.0
1664548939868,2.0136719,-1.3496094,0.029296875,-47.5625,166.21875,-44.5625,0.0,0.0,0.0
1664548939919,0.21972656,0.049804688,1.0605469,15.5625,43.71875,33.25,-6.625,-64.3125,-73.5625
1664548939964,-0.107421875,-0.5449219,0.5986328,-12.03125,87.65625,-61.34375,0.0,0.0,0.0
1664548940021,0.8066406,-0.6689453,0.6435547,37.40625,98.09375,-109.28125,0.0,0.0,0.0
1664548940068,1.4462891,-0.6201172,1.03125,-36.03125,32.90625,-42.5625,0.0,0.0,0.0
1664548940101,0.5292969,-0.3984375,0.8330078,-1.28125,25.6875,-2.09375,0.0,0.0,0.0
1664548940160,0.49414062,-0.33398438,0.70996094,14.9375,40.96875,-8.5625,0.0,0.0,0.0
1664548940207,0.82128906,-0.17089844,0.8408203,-19.96875,40.28125,-27.0625,0.0,0.0,0.0
1664548940236,0.36816406,-0.3935547,0.3095703,-32.65625,56.71875,-39.75,0.0,0.0,0.0
1664548940314,0.28320312,-0.17285156,0.20019531,18.71875,24.71875,-28.46875,0.0,0.0,0.0
1664548940325,0.40820312,-0.048828125,0.31445312,28.3125,38.15625,-26.375,0.0,0.0,0.0
1664548940357,1.1396484,-0.203125,0.6064453,-16.65625,79.0625,-65.875,0.0,0.0,0.0
1664548940427,1.03125,-0.7441406,1.5087891,14.53125,4.78125,-18.3125,0.0,0.0,0.0
1664548940461,0.6982422,-0.06640625,0.96875,31.5625,18.375,9.03125,0.0,0.0,0.0
1664548940497,0.3076172,-0.083984375,0.48242188,21.78125,11.25,21.53125,-20.25,-59.5,-64.25
1664548940545,0.515625,-0.296875,0.53808594,0.375,27.53125,9.9375,0.0,0.0,0.0
1664548940566,0.48339844,-0.43554688,1.0302734,10.5625,11.53125,7.96875,0.0,0.0,0.0
1664548940606,0.4267578,-0.20605469,1.0771484,11.53125,40.21875,-13.0625,0.0,0.0,0.0
1664548940648,0.23144531,-0.06738281,0.9560547,-14.96875,31.125,-8.3125,0.0,0.0,0.0
1664548940672,0.32617188,-0.21386719,0.7548828,18.78125,28.8125,8.46875,0.0,0.0,0.0
1664548940719,0.4765625,-0.19726562,0.9111328,36.8125,28.375,7.90625,0.0,0.0,0.0
1664548940795,0.40234375,-0.2607422,0.9355469,-11.125,42.71875,-5.3125,0.0,0.0,0.0
1664548940811,0.34472656,-0.24609375,0.8339844,17.15625,45.28125,-12.03125,0.0,0.0,0.0
1664548940831,0.24609375,-0.12402344,1.1513672,25.6875,36.625,-1.0625,0.0,0.0,0.0
1664548940889,0.28320312,-0.10546875,0.8876953,-9.28125,17.53125,12.0,0.0,0.0,0.0
1664548940902,0.390625,-0.15136719,0.7597656,1.53125,42.5625,-5.5,0.0,0.0,0.0
1664548940946,0.24414062,-0.2734375,0.94628906,-7.34375,57.1875,-3.4375,-33.75,-55.3125,-64.5625
1664548941010,0.123046875,-0.23730469,1.0673828,-3.4375,47.0625,-2.15625,0.0,0.0,0.0
1664548941041,0.0859375,-0.17285156,1.1416016,-3.90625,22.15625,5.34375,0.0,0.0,0.0
1664548941077,0.11035156,-0.265625,1.1455078,7.875,-1.75,4.5625,0.0,0.0,0.0
1664548941117,0.18261719,-0.22460938,0.9716797,-3.25,-12.3125,2.0,0.0,0.0,0.0
1664548941169,0.18457031,-0.1796875,0.9003906,-3.125,-13.46875,3.90625,0.0,0.0,0.0
1664548941171,0.23730469,-0.15527344,0.9140625,9.875,-9.46875,6.8125,0.0,0.0,0.0
1664548941254,0.23242188,-0.17578125,0.9091797,3.84375,2.03125,7.1875,0.0,0.0,0.0
1664548941276,0.21875,-0.17773438,0.95214844,-6.53125,12.53125,4.125,0.0,0.0,0.0
1664548941312,0.20410156,-0.18457031,1.0195312,1.21875,9.96875,0.96875,0.0,0.0,0.0
1664548941351,0.17675781,-0.18359375,1.0742188,-3.65625,-2.4375,0.71875,0.0,0.0,0.0
1664548941362,0.17578125,-0.18652344,0.9892578,-9.21875,-12.125,3.34375,0.0,0.0,0.0
1664548941386,0.2421875,-0.2265625,0.95410156,-2.625,-13.90625,5.34375,0.0,0.0,0.0
1664548941429,0.14550781,-0.23730469,0.9902344,-4.65625,-3.71875,6.34375,-36.3125,-54.875,-63.5
1664548941463,0.11230469,-0.29785156,1.0332031,3.28125,4.03125,0.0,0.0,0.0,0.0
1664548941488,0.23339844,-0.25585938,0.83496094,-8.3125,-0.25,-6.96875,0.0,0.0,0.0
1664548941547,0.20898438,-0.26464844,0.7753906,4.28125,-14.6875,-2.15625,0.0,0.0,0.0
1664548941596,0.39941406,-0.0546875,1.0888672,14.03125,-22.8125,1.5625,0.0,0.0,0.0
1664548941608,0.3095703,-0.080078125,0.9716797,-6.15625,-24.09375,-5.75,0.0,0.0,0.0
1664548941667,0.27734375,-0.15527344,0.90527344,-22.59375,-23.5625,-2.625,0.0,0.0,0.0
1664548941707,0.25976562,-0.20800781,0.88671875,-25.46875,-29.46875,0.21875,0.0,0.0,0.0
1664548941733,0.33007812,-0.25683594,0.8359375,-21.25,-34.96875,7.5625,0.0,0.0,0.0
1664548941801,0.4501953,-0.2685547,0.89453125,-28.6875,-22.15625,3.03125,0.0,0.0,0.0
1664548941818,0.31054688,-0.34570312,0.83496094,-19.78125,-23.25,11.9375,0.0,0.0,0.0
1664548941859,0.46679688,-0.2998047,0.8828125,-5.25,-16.96875,4.0,0.0,0.0,0.0
1664548941917,0.34472656,-0.31933594,0.8564453,-14.21875,-15.375,12.6875,-30.625,-59.8125,-64.5625
1664548941953,0.3544922,-0.35253906,0.9121094,4.03125,-12.8125,14.625,0.0,0.0,0.0
1664548941982,0.32128906,-0.27148438,0.8769531,6.21875,-15.25,13.0,0.0,0.0,0.0
1664548942072,0.36621094,-0.29296875,0.8730469,9.5,-16.03125,17.0,0.0,0.0,0.0
1664548942073,0.4140625,-0.28515625,0.9355469,4.15625,-8.40625,14.5625,0.0,0.0,0.0
1664548942102,0.3310547,-0.3671875,1.0507812,17.375,-10.25,19.625,0.0,0.0,0.0
1664548942174,0.41308594,-0.29882812,0.9326172,26.3125,-2.25,12.875,0.0,0.0,0.0
1664548942217,0.38476562,-0.33789062,1.0703125,30.75,13.3125,15.375,0.0,0.0,0.0
1664548942242,0.515625,-0.33789062,0.92578125,24.28125,16.59375,16.9375,0.0,0.0,0.0
1664548942300,0.5761719,-0.29296875,0.8046875,24.15625,13.875,23.53125,0.0,0.0,0.0
1664548942329,0.3857422,-0.21289062,0.828125,-1.84375,-22.5625,41.375,0.0,0.0,0.0
1664548942354,0.6542969,-0.4267578,0.82714844,0.375,-31.1875,55.59375,0.0,0.0,0.0
1664548942412,0.7421875,-0.53222656,0.9355469,-8.5,-53.875,25.6875,0.0,0.0,0.0
1664548942423,0.6455078,-0.87597656,0.7089844,-18.6875,-84.03125,-5.9375,-25.0625,-56.5,-63.625
1664548942456,0.5957031,-0.3515625,0.6621094,-32.28125,-82.9375,-34.0625,0.0,0.0,0.0
1664548942510,0.70996094,-0.3857422,0.7011719,-52.75,-72.5625,-46.03125,0.0,0.0,0.0
1664548942540,0.7597656,-0.5332031,0.70996094,-78.5,-39.40625,-66.0625,0.0,0.0,0.0
1664548942575,0.73046875,-0.5878906,0.7314453,-56.09375,-35.46875,-82.40625,0.0,0.0,0.0
1664548942635,0.9511719,-0.5107422,0.7216797,-45.46875,2.625,-97.1875,0.0,0.0,0.0
1664548942665,0.78027344,-0.27929688,0.54785156,-27.84375,66.96875,-126.25,0.0,0.0,0.0
1664548942696,0.7060547,-0.18847656,0.49023438,-22.28125,100.59375,-84.1875,0.0,0.0,0.0
1664548942791,0.72265625,-0.33789062,0.5722656,9.8125,114.875,-52.4375,0.0,0.0,0.0
1664548942834,0.40039062,-0.25390625,0.8886719,-20.875,123.3125,-6.3125,0.0,0.0,0.0
1664548942865,-0.06640625,-0.44628906,1.5146484,-3.65625,68.65625,-31.9375,0.0,0.0,0.0
1664548942913,0.1015625,-0.14746094,0.8925781,-46.03125,75.09375,-20.46875,0.0,0.0,0.0
1664548942931,0.025390625,-0.18847656,0.66796875,21.0625,61.65625,-15.875,-29.25,-62.6875,-67.5625
1664548942969,0.14453125,-0.359375,0.5986328,30.625,75.03125,5.96875,0.0,0.0,0.0
1664548943012,0.25878906,0.05859375,0.64746094,75.3125,49.5625,24.15625,0.0,0.0,0.0
1664548943029,0.24121094,0.1015625,0.6845703,46.8125,74.78125,15.25,0.0,0.0,0.0
1664548943050,-0.095703125,-0.25390625,0.7548828,52.96875,64.71875,4.625,0.0,0.0,0.0
1664548943111,-0.103515625,-0.001953125,0.9248047,68.34375,43.65625,14.375,0.0,0.0,0.0
1664548943198,-0.06640625,0.030273438,0.9423828,30.03125,53.46875,6.5625,0.0,0.0,0.0
1664548943231,-0.15722656,-0.08300781,0.859375,32.40625,41.15625,6.21875,0.0,0.0,0.0
1664548943296,-0.09082031,0.2626953,0.9980469,34.90625,31.875,5.71875,0.0,0.0,0.0
1664548943325,-0.24707031,0.1875,1.0048828,-0.8125,53.90625,19.28125,0.0,0.0,0.0
1664548943345,-0.66308594,-0.0625,1.3046875,-4.09375,31.8125,33.8125,0.0,0.0,0.0
1664548943398,-0.45117188,0.296875,1.3925781,25.9375,5.625,26.40625,0.0,0.0,0.0
1664548943452,-0.09472656,0.39257812,1.3037109,2.1875,-10.0625,-0.125,0.0,0.0,0.0
1664548943454,0.115234375,0.16210938,1.1181641,-17.9375,1.03125,-22.28125,-47.375,-50.8125,-66.0625
1664548943475,-0.30664062,-0.10058594,0.97265625,-10.25,-1.875,-19.71875,0.0,0.0,0.0
1664548943516,-0.29492188,-0.025390625,0.9326172,4.09375,-15.1875,-40.40625,0.0,0.0,0.0
1664548943543,-0.22949219,0.24414062,1.1621094,-17.71875,-34.1875,-40.40625,0.0,0.0,0.0
1664548943628,-0.32226562,0.036132812,1.2695312,-73.5625,2.15625,-58.5625,0.0,0.0,0.0
1664548943661,-0.07128906,-0.16210938,1.2539062,-58.34375,32.96875,-74.84375,0.0,0.0,0.0
1664548943684,0.13085938,-0.25585938,1.1494141,-33.09375,82.03125,-71.4375,0.0,0.0,0.0
1664548943714,-0.1171875,-0.19042969,1.3789062,2.9375,75.15625,-48.53125,0.0,0.0,0.0
1664548943741,0.053710938,-0.06933594,1.296875,10.3125,98.21875,-80.65625,0.0,0.0,0.0
1664548943787,0.34960938,-0.14941406,0.9082031,-4.21875,116.59375,-62.8125,0.0,0.0,0.0
1664548943866,-0.15917969,-0.0087890625,1.0185547,14.34375,83.25,6.75,0.0,0.0,0.0
1664548943895,-0.26953125,0.005859375,0.8671875,4.75,78.5,28.65625,0.0,0.0,0.0
1664548943930,-0.28027344,-0.033203125,0.8955078,-25.15625,90.03125,16.65625,-61.8125,-59.5,-75.5
1664548943990,-0.3330078,-0.078125,0.82714844,-28.8125,92.53125,30.3125,0.0,0.0,0.0
1664548944028,-0.5419922,-0.203125,0.8300781,-29.59375,92.65625,50.46875,0.0,0.0,0.0
1664548944048,-0.74609375,-0.0859375,0.85253906,-1.71875,82.71875,57.46875,0.0,0.0,0.0
1664548944104,-0.5107422,0.07324219,0.640625,-13.0,90.15625,60.15625,0.0,0.0,0.0
1664548944126,-0.5986328,-0.037109375,0.73535156,-42.25,93.34375,64.75,0.0,0.0,0.0
1664548944160,-0.9355469,-0.12402344,0.5966797,-37.53125,88.03125,69.0625,0.0,0.0,0.0
1664548944213,-0.62597656,-0.10546875,0.53027344,-36.25,92.71875,68.40625,0.0,0.0,0.0
1664548944237,-0.72558594,-0.0234375,0.5830078,-26.4375,91.625,61.1875,0.0,0.0,0.0
1664548944263,-1.0302734,-0.17871094,0.67089844,-22.28125,97.78125,52.21875,0.0,0.0,0.0
1664548944321,-0.61816406,0.07421875,0.50390625,2.25,82.78125,53.9375,0.0,0.0,0.0
1664548944348,-0.6035156,0.12207031,0.3623047,0.90625,102.3125,69.3125,0.0,0.0,0.0
1664548944385,-0.71972656,0.17480469,0.3720703,0.1875,101.3125,76.40625,0.0,0.0,0.0
1664548944440,-0.65527344,0.08203125,0.40234375,4.4375,104.8125,79.4375,-83.6875,-41.375,-111.0625
1664548944459,-0.7138672,0.033203125,0.4921875,-4.65625,78.5,73.90625,0.0,0.0,0.0
1664548944508,-1.0458984,0.078125,0.31054688,-53.65625,88.4375,50.71875,0.0,0.0,0.0
1664548944562,-0.9013672,0.25390625,0.36621094,2.875,59.625,7.25,0.0,0.0,0.0
1664548944592,-0.8671875,0.38378906,0.47460938,5.1875,31.6875,14.21875,0.0,0.0,0.0
1664548944619,-0.93359375,0.4091797,0.22460938,-34.25,-18.84375,42.09375,0.0,0.0,0.0
1664548944670,-0.82421875,0.38476562,0.115234375,11.40625,-32.09375,38.1875,0.0,0.0,0.0
1664548944715,-0.6435547,0.20117188,0.22949219,3.53125,21.125,0.28125,0.0,0.0,0.0
1664548944776,-1.0185547,0.2626953,-0.17871094,-42.5625,103.15625,-47.1875,0.0,0.0,0.0
1664548944828,-0.9902344,0.33789062,-0.08105469,-37.375,100.53125,-22.15625,0.0,0.0,0.0
1664548944876,-1.2041016,0.4423828,0.28027344,-11.71875,18.9375,-11.125,0.0,0.0,0.0
1664548944922,-0.89160156,0.14453125,-0.36621094,-52.8125,10.9375,-17.53125,0.0,0.0,0.0
1664548944989,-0.9248047,0.20703125,0.001953125,12.09375,-10.1875,5.59375,-78.625,-33.6875,-126.9375
1664548945008,-0.97558594,0.14746094,-0.1796875,50.15625,20.34375,-4.71875,0.0,0.0,0.0
1664548945029,-1.0683594,0.36914062,-0.022460938,35.8125,20.6875,-11.90625,0.0,0.0,0.0
1664548945122,-0.9326172,0.38867188,0.016601562,12.9375,-3.53125,-5.5625,0.0,0.0,0.0
1664548945141,-0.9560547,0.14160156,-0.026367188,-11.90625,-2.25,-5.09375,0.0,0.0,0.0
1664548945193,-1.0732422,0.18847656,-0.06542969,-9.40625,4.34375,-13.125,0.0,0.0,0.0
1664548945244,-0.96777344,0.19140625,-0.056640625,2.6875,1.96875,-6.375,0.0,0.0,0.0
1664548945261,-0.98339844,0.21777344,-0.021484375,2.5625,3.78125,-1.125,0.0,0.0,0.0
1664548945297,-1.0019531,0.21191406,-0.024414062,-2.5,1.46875,-3.5,0.0,0.0,0.0
1664548945349,-0.9667969,0.18945312,-0.0107421875,-6.0625,-0.96875,-4.21875,0.0,0.0,0.0
1664548945379,-1.0019531,0.13964844,-0.057617188,-3.78125,-0.71875,-2.8125,0.0,0.0,0.0
1664548945417,-0.9921875,0.1953125,-0.018554688,2.0,-4.03125,-1.53125,0.0,0.0,0.0
1664548945463,-0.97753906,0.20996094,0.015625,0.59375,-4.9375,0.65625,0.0,0.0,0.0
1664548945484,-0.9941406,0.15820312,0.015625,-2.21875,-7.125,0.71875,-78.125,-37.3125,-128.3125
1664548945539,-0.98046875,0.16796875,0.017578125,3.03125,-5.25,-0.875,0.0,0.0,0.0
1664548945603,-0.9785156,0.19042969,0.016601562,5.71875,-6.28125,0.96875,0.0,0.0,0.0
1664548945628,-0.97558594,0.18554688,0.021484375,8.34375,-7.4375,3.03125,0.0,0.0,0.0
1664548945666,-0.984375,0.1953125,0.038085938,8.65625,-3.84375,1.03125,0.0,0.0,0.0
1664548945717,-0.9716797,0.19238281,0.01953125,9.46875,-4.6875,0.0,0.0,0.0,0.0
1664548945783,-1.0009766,0.18945312,0.018554688,10.5,-7.1875,-0.375,0.0,0.0,0.0
1664548945785,-0.984375,0.19042969,0.0029296875,12.1875,-14.03125,2.5625,0.0,0.0,0.0
1664548945844,-1.0078125,0.15917969,0.0546875,13.71875,-18.59375,4.6875,0.0,0.0,0.0
1664548945882,-0.9794922,0.17089844,0.10644531,18.25,-22.15625,4.4375,0.0,0.0,0.0
1664548945912,-0.9970703,0.13378906,0.12109375,18.1875,-24.71875,2.125,0.0,0.0,0.0
1664548945963,-0.93652344,0.2265625,0.18554688,18.90625,-30.5,-0.25,0.0,0.0,0.0
1664548945995,-0.92578125,0.1953125,0.18652344,5.375,-32.90625,-3.25,-80.125,-37.75,-126.0625
1664548946016,-0.9326172,0.14257812,0.18457031,8.40625,-35.46875,-6.0,0.0,0.0,0.0
1664548946051,-0.9814453,0.18847656,0.24414062,16.15625,-43.09375,-4.96875,0.0,0.0,0.0
1664548946084,-0.91796875,0.20800781,0.0234375,15.3125,-61.46875,-11.4375,0.0,0.0,0.0
1664548946120,-0.87402344,0.28515625,-0.013671875,27.34375,-59.5,-9.78125,0.0,0.0,0.0
1664548946159,-1.0771484,0.30078125,-0.03515625,26.0,-49.84375,-4.59375,0.0,0.0,0.0
1664548946195,-1.2353516,0.4716797,0.045898438,22.6875,-33.9375,-1.125,0.0,0.0,0.0
1664548946212,-1.1728516,0.44335938,0.05859375,3.28125,-26.125,-1.0,0.0,0.0,0.0
1664548946281,-1.0976562,0.42285156,0.05078125,-11.59375,-21.125,-3.8125,0.0,0.0,0.0
1664548946310,-1.0078125,0.32910156,0.018554688,-16.84375,-15.6875,-0.6875,0.0,0.0,0.0
1664548946332,-0.9111328,0.22949219,0.041015625,-0.6875,-29.09375,1.3125,0.0,0.0,0.0
1664548946387,-0.88964844,0.22851562,0.15527344,18.4375,-37.59375,4.4375,0.0,0.0,0.0
1664548946417,-0.86328125,0.19238281,0.265625,31.78125,-49.375,3.34375,0.0,0.0,0.0
1664548946442,-0.8857422,0.0703125,0.41503906,27.09375,-55.46875,-11.25,-81.4375,-40.4375,-109.5625
1664548946481,-0.7441406,0.21582031,0.42773438,-9.78125,-77.15625,-19.5,0.0,0.0,0.0
1664548946520,-0.5214844,0.030273438,0.61621094,-0.8125,-93.5,-16.4375,0.0,0.0,0.0
1664548946546,-0.63378906,-0.08691406,0.4326172,-22.78125,-108.8125,-23.15625,0.0,0.0,0.0
1664548946596,-0.45996094,0.09277344,0.60058594,-52.9375,-107.84375,-14.78125,0.0,0.0,0.0
1664548946617,-0.2841797,0.0068359375,0.33007812,-79.65625,-137.375,-16.4375,0.0,0.0,0.0
1664548946647,-0.29296875,0.001953125,0.50390625,-53.15625,-174.3125,-25.96875,0.0,0.0,0.0
1664548946711,-0.30273438,-0.21582031,0.6621094,-66.03125,-188.84375,-16.4375,0.0,0.0,0.0
1664548946737,-0.29296875,0.06640625,0.6689453,-29.1875,-249.875,10.3125,0.0,0.0,0.0
1664548946775,-0.43359375,0.13769531,0.8701172,-34.0625,-260.625,31.0,0.0,0.0,0.0
1664548946831,-0.3935547,0.0859375,1.0234375,11.09375,-312.25,73.90625,0.0,0.0,0.0
1664548946867,0.0546875,0.025390625,1.0898438,2.0625,-290.75,98.875,0.0,0.0,0.0
1664548946927,0.39648438,0.041015625,1.0537109,-7.625,-293.5,132.6875,-28.5,-48.875,-57.6875
1664548946993,0.4970703,-0.10546875,0.9970703,-47.84375,-255.375,138.53125,0.0,0.0,0.0
1664548947017,0.6748047,0.04296875,1.0947266,-98.09375,-197.0,112.96875,0.0,0.0,0.0
1664548947065,0.28808594,-0.36621094,0.88183594,-122.125,-100.21875,56.8125,0.0,0.0,0.0
1664548947131,0.7607422,-0.55371094,0.41308594,-63.125,-7.375,45.5625,0.0,0.0,0.0
1664548947172,2.0136719,-0.8935547,0.87402344,72.4375,5.0625,75.5,0.0,0.0,0.0
1664548947212,2.0136719,0.6894531,0.76953125,80.625,181.65625,-92.46875,0.0,0.0,0.0
1664548947254,-1.0908203,-0.80566406,0.9111328,-133.0,109.125,4.5,0.0,0.0,0.0
1664548947280,-0.5341797,0.13183594,0.6230469,59.3125,53.71875,-15.625,0.0,0.0,0.0
1664548947283,1.2255859,-0.7558594,0.76953125,-59.875,111.15625,-56.40625,0.0,0.0,0.0
1664548947319,1.9091797,-0.6591797,1.4960938,-113.84375,2.8125,-5.3125,0.0,0.0,0.0
1664548947344,0.9707031,-1.4873047,0.8095703,-17.84375,63.90625,-39.375,0.0,0.0,0.0
1664548947383,-0.049804688,-0.8652344,0.3486328,-17.65625,37.71875,-39.75,0.0,0.0,0.0
1664548947433,0.34277344,-0.099609375,0.4140625,40.46875,54.75,-92.84375,-22.9375,-63.875,-69.1875
1664548947513,0.3935547,-0.02734375,0.15820312,29.21875,49.625,-58.0,0.0,0.0,0.0
1664548947516,0.1875,-0.072265625,0.49316406,42.28125,26.625,-29.125,0.0,0.0,0.0
1664548947595,0.4765625,-0.16796875,0.92578125,5.0,40.15625,-43.09375,0.0,0.0,0.0
1664548947653,1.4238281,-0.9550781,1.3720703,93.0625,56.21875,-7.9375,0.0,0.0,0.0
1664548947655,0.75,0.22460938,0.8496094,69.6875,32.84375,12.6875,0.0,0.0,0.0
1664548947727,0.19726562,-0.27148438,0.50878906,8.1875,18.1875,27.6875,0.0,0.0,0.0
1664548947754,0.40527344,-0.057617188,0.9082031,19.21875,33.75,6.34375,0.0,0.0,0.0
1664548947775,0.31054688,-0.22753906,1.0947266,-30.875,22.03125,-10.21875,0.0,0.0,0.0
1664548947837,0.34472656,-0.025390625,1.2421875,52.1875,29.78125,-20.09375,0.0,0.0,0.0
1664548947865,0.21582031,-0.06640625,0.7607422,-16.78125,21.5,-9.65625,0.0,0.0,0.0
1664548947883,0.125,-0.203125,0.98828125,-10.1875,19.78125,-6.0,0.0,0.0,0.0
1664548947932,0.23632812,-0.109375,1.1113281,-4.59375,12.40625,-7.40625,-34.5,-54.875,-64.5625
1664548947981,0.24804688,-0.11621094,0.9033203,8.59375,0.8125,-3.75,0.0,0.0,0.0
1664548947983,0.25585938,-0.16503906,0.9453125,-16.78125,3.90625,3.40625,0.0,0.0,0.0
1664548948060,0.25976562,-0.18359375,0.9863281,-15.375,0.96875,5.84375,0.0,0.0,0.0
1664548948105,0.34179688,-0.1875,0.9248047,-0.4375,-5.0625,6.6875,0.0,0.0,0.0
1664548948127,0.3154297,-0.22460938,0.9970703,-14.03125,-1.28125,6.15625,0.0,0.0,0.0
1664548948170,0.30371094,-0.24609375,0.9580078,-16.5,-0.40625,4.125,0.0,0.0,0.0
1664548948202,0.27246094,-0.25683594,0.93359375,-2.9375,-3.78125,4.6875,0.0,0.0,0.0
1664548948243,0.30371094,-0.2421875,0.92285156,-0.3125,-13.1875,8.40625,0.0,0.0,0.0
1664548948306,0.2919922,-0.20800781,0.9892578,1.65625,-10.375,9.5,0.0,0.0,0.0
1664548948327,0.2705078,-0.23535156,1.0126953,-0.4375,-6.21875,8.28125,0.0,0.0,0.0
1664548948338,0.3466797,-0.22558594,0.9609375,5.125,-7.1875,7.25,0.0,0.0,0.0
1664548948388,0.2763672,-0.17578125,0.88183594,-11.25,-2.75,4.125,0.0,0.0,0.0
1664548948426,0.328125,-0.3251953,0.67871094,3.53125,-4.5625,9.09375,-32.25,-55.75,-65.4375
1664548948450,0.2734375,-0.0859375,0.640625,9.03125,3.3125,-15.03125,0.0,0.0,0.0
1664548948512,0.47070312,-0.19140625,0.9042969,-28.875,34.3125,-27.40625,0.0,0.0,0.0
1664548948543,0.31152344,-0.20703125,1.0136719,-8.96875,27.15625,-7.09375,0.0,0.0,0.0
1664548948594,0.2919922,-0.16503906,0.9160156,-21.90625,7.875,15.78125,0.0,0.0,0.0
1664548948646,0.35058594,-0.27929688,1.0263672,-8.0625,-18.71875,18.53125,0.0,0.0,0.0
1664548948683,0.31152344,-0.29882812,1.0117188,-5.5,-23.0625,17.0,0.0,0.0,0.0
1664548948702,0.34375,-0.3173828,0.8779297,-8.125,-26.53125,5.125,0.0,0.0,0.0
1664548948763,0.36621094,-0.2705078,0.8691406,-12.09375,-27.6875,6.8125,0.0,0.0,0.0
1664548948802,0.390625,-0.2841797,0.96484375,-4.46875,-26.90625,16.90625,0.0,0.0,0.0
1664548948821,0.23925781,-0.3330078,0.85253906,-19.84375,-16.21875,25.875,0.0,0.0,0.0
1664548948890,0.34570312,-0.2890625,0.8457031,3.84375,-15.125,19.53125,0.0,0.0,0.0
1664548948935,0.33007812,-0.3125,0.96777344,17.15625,0.0,17.6875,-30.4375,-58.3125,-65.4375
1664548948970,0.3046875,-0.27148438,0.9169922,10.6875,28.21875,6.5625,0.0,0.0,0.0
1664548949026,0.29882812,-0.34570312,1.0253906,13.125,38.875,2.3125,0.0,0.0,0.0
1664548949046,0.29492188,-0.37304688,0.8808594,14.09375,31.0,-0.9375,0.0,0.0,0.0
1664548949075,0.41015625,-0.29785156,1.0283203,7.5625,29.59375,11.28125,0.0,0.0,0.0
1664548949143,0.31835938,-0.36035156,0.9785156,6.65625,37.71875,23.65625,0.0,0.0,0.0
1664548949177,0.3984375,-0.15722656,0.8486328,11.78125,29.0,29.15625,0.0,0.0,0.0
1664548949202,0.21484375,-0.24023438,1.1767578,-6.21875,25.21875,35.6875,0.0,0.0,0.0
1664548949251,0.54785156,-0.46777344,1.0644531,-7.28125,-36.3125,15.90625,0.0,0.0,0.0
1664548949267,0.48828125,-0.77441406,0.91015625,-19.46875,-77.1875,-9.28125,0.0,0.0,0.0
1664548949294,0.5107422,-0.4560547,0.8173828,-11.46875,-93.8125,-28.09375,0.0,0.0,0.0
1664548949367,0.5,-0.22851562,0.7285156,-8.25,-94.84375,-39.9375,0.0,0.0,0.0
1664548949400,0.64941406,-0.29296875,0.7529297,-42.4375,-80.0,-54.46875,0.0,0.0,0.0
1664548949434,0.5732422,-0.40820312,0.828125,-62.125,-59.125,-69.96875,-24.875,-60.25,-64.25
1664548949502,0.6855469,-0.40429688,0.8310547,-43.21875,-41.3125,-77.71875,0.0,0.0,0.0
1664548949522,0.6542969,-0.31933594,0.90234375,-30.46875,-21.21875,-83.375,0.0,0.0,0.0
1664548949546,0.7841797,-0.34960938,0.7451172,-37.46875,-3.59375,-79.71875,0.0,0.0,0.0
1664548949605,0.8125,-0.48535156,0.63183594,-27.65625,32.0625,-80.28125,0.0,0.0,0.0
1664548949645,0.71484375,-0.50097656,0.50390625,16.96875,46.46875,-69.78125,0.0,0.0,0.0
1664548949660,0.7216797,-0.34765625,0.5732422,36.0,38.21875,-13.75,0.0,0.0,0.0
1664548949709,0.32421875,-0.18164062,0.6591797,4.75,84.25,-19.53125,0.0,0.0,0.0
1664548949736,0.2265625,-0.47558594,1.0087891,-22.03125,104.0625,-80.9375,0.0,0.0,0.0
1664548949773,0.16992188,-0.3408203,0.9091797,-89.96875,105.65625,-51.53125,0.0,0.0,0.0
1664548949842,0.0703125,-0.3701172,0.8535156,-80.4375,101.25,-28.875,0.0,0.0,0.0
1664548949877,0.11230469,-0.3076172,0.9121094,0.53125,56.65625,-21.375,0.0,0.0,0.0
1664548949914,0.4873047,-0.26171875,0.84472656,21.28125,68.1875,-10.9375,-33.3125,-67.75,-67.375
1664548949963,0.00390625,-0.22460938,0.8066406,49.125,55.1875,6.8125,0.0,0.0,0.0
1664548949994,-0.12988281,-0.036132812,0.8496094,56.15625,40.71875,23.71875,0.0,0.0,0.0
1664548950020,-0.060546875,0.0029296875,0.8574219,66.59375,21.0625,41.125,0.0,0.0,0.0
1664548950091,-0.061523438,-0.095703125,0.94140625,51.625,25.8125,36.46875,0.0,0.0,0.0
1664548950096,-0.12011719,-0.12988281,0.89746094,44.375,35.84375,21.21875,0.0,0.0,0.0
1664548950134,-0.08984375,-0.04296875,0.9824219,53.28125,23.4375,13.84375,0.0,0.0,0.0
1664548950187,0.06542969,0.060546875,1.0332031,54.5,27.90625,-3.1875,0.0,0.0,0.0
1664548950284,0.08984375,0.15136719,1.0664062,48.28125,16.1875,-3.4375,0.0,0.0,0.0
1664548950285,0.029296875,0.10058594,1.1054688,30.5,19.53125,-1.59375,0.0,0.0,0.0
1664548950326,0.032226562,0.103515625,1.1259766,15.375,22.53125,-5.5625,0.0,0.0,0.0
1664548950362,-0.24609375,0.13574219,1.0449219,12.9375,8.90625,-7.8125,0.0,0.0,0.0
1664548950384,-0.23144531,0.021484375,0.9326172,10.25,2.5,-8.4375,0.0,0.0,0.0
1664548950449,-0.2109375,0.16015625,0.84375,21.65625,-22.5625,1.5625,-45.125,-51.6875,-65.875
1664548950477,-0.29492188,0.07128906,1.2949219,22.625,-18.0,-14.53125,0.0,0.0,0.0
1664548950487,0.057617188,0.52734375,1.1142578,6.28125,-3.34375,-24.625,0.0,0.0,0.0
1664548950572,-0.45703125,0.16503906,1.0117188,-42.125,5.375,-14.0,0.0,0.0,0.0
1664548950597,-0.48339844,0.10546875,1.3525391,-38.65625,-20.375,-23.15625,0.0,0.0,0.0
1664548950637,-0.4296875,-0.041992188,1.4335938,-61.71875,15.4375,-41.09375,0.0,0.0,0.0
1664548950685,-0.055664062,-0.16113281,1.2607422,-52.0,62.09375,-51.21875,0.0,0.0,0.0
1664548950715,0.15039062,-0.3125,1.2109375,26.71875,68.96875,-44.03125,0.0,0.0,0.0
1664548950737,0.048828125,0.23828125,1.3388672,10.6875,51.53125,-22.65625,0.0,0.0,0.0
1664548950823,0.47265625,0.10546875,1.0429688,-92.34375,76.1875,-27.96875,0.0,0.0,0.0
1664548950863,-0.109375,-0.2421875,0.98046875,-79.09375,102.96875,-0.125,0.0,0.0,0.0
1664548950881,-0.08886719,-0.0126953125,1.0039062,5.125,86.8125,29.28125,0.0,0.0,0.0
1664548950933,-0.18847656,-0.11816406,0.7861328,-22.09375,86.875,47.71875,-57.0,-60.6875,-73.5625
1664548950949,-0.40722656,-0.009765625,0.8173828,-32.0,76.4375,39.34375,0.0,0.0,0.0
1664548950973,-0.17578125,-0.21875,0.7597656,-39.8125,93.6875,33.5,0.0,0.0,0.0
1664548951026,-0.6230469,-0.20117188,0.99902344,-27.15625,79.34375,55.59375,0.0,0.0,0.0
1664548951076,-0.5078125,-0.1328125,0.85839844,-11.46875,52.0,44.53125,0.0,0.0,0.0
1664548951088,-0.4736328,0.0048828125,0.79589844,-11.59375,49.09375,75.125,0.0,0.0,0.0
1664548951155,-0.65722656,-0.06933594,0.72265625,-37.1875,62.15625,75.84375,0.0,0.0,0.0
1664548951176,-0.7578125,-0.087890625,0.73535156,-44.0625,71.125,73.78125,0.0,0.0,0.0
1664548951211,-0.80078125,-0.001953125,0.6201172,-49.375,80.03125,72.3125,0.0,0.0,0.0
1664548951288,-0.9921875,0.119140625,0.56933594,-47.0,95.46875,84.28125,0.0,0.0,0.0
1664548951319,-0.6171875,0.123046875,0.4736328,-9.28125,100.96875,108.25,0.0,0.0,0.0
1664548951350,-0.37597656,0.23046875,0.6425781,57.6875,97.59375,135.78125,0.0,0.0,0.0
1664548951394,-0.45117188,-0.19042969,0.6611328,37.15625,36.6875,133.84375,0.0,0.0,0.0
1664548951424,0.005859375,-0.24511719,0.56152344,55.09375,-12.875,51.75,-81.125,-40.625,-101.875
1664548951450,-0.047851562,0.040039062,-0.4345703,-52.5625,122.625,-12.28125,0.0,0.0,0.0
1664548951525,-0.97265625,0.7167969,0.06738281,81.34375,217.15625,33.96875,0.0,0.0,0.0
1664548951540,-1.9863281,1.3007812,0.2861328,-65.375,264.65625,-21.875,0.0,0.0,0.0
1664548951570,-1.9863281,-1.1191406,1.9824219,-83.1875,70.4375,-50.0625,0.0,0.0,0.0
1664548951634,0.40234375,0.98339844,-0.8388672,-98.21875,64.15625,-39.375,0.0,0.0,0.0
1664548951656,-0.45703125,-0.24609375,0.24023438,84.40625,-97.96875,96.59375,0.0,0.0,0.0
1664548951692,-1.3984375,-0.69921875,-0.1875,66.46875,155.65625,-55.5625,0.0,0.0,0.0
1664548951778,-1.0927734,0.10546875,0.12011719,68.71875,-2.9375,21.40625,0.0,0.0,0.0
1664548951808,-0.5888672,0.46972656,0.4794922,45.90625,2.09375,3.21875,0.0,0.0,0.0
1664548951840,-1.1699219,-0.0048828125,-0.07324219,-8.125,23.625,-7.46875,0.0,0.0,0.0
1664548951890,-1.0439453,-0.16992188,-0.022460938,34.65625,0.625,-8.625,0.0,0.0,0.0
1664548951906,-0.875,0.3564453,0.19433594,38.9375,12.6875,-1.71875,-78.75,-39.5625,-130.5625
1664548951928,-0.94140625,0.11035156,-0.0234375,33.3125,-0.1875,19.6875,0.0,0.0,0.0
1664548952038,-1.1152344,0.0,-0.17382812,62.625,3.59375,11.75,0.0,0.0,0.0
1664548952088,-1.0361328,0.2548828,0.091796875,73.25,-16.71875,2.25,0.0,0.0,0.0
1664548952118,-0.9560547,0.265625,0.040039062,33.4375,-26.0,-0.125,0.0,0.0,0.0
1664548952182,-0.9658203,0.13867188,0.03125,20.5,-23.5625,-0.6875,0.0,0.0,0.0
1664548952213,-1.0166016,0.15917969,-0.018554688,21.34375,-11.71875,-0.9375,0.0,0.0,0.0
1664548952240,-0.9375,0.265625,0.032226562,19.09375,-4.375,3.28125,0.0,0.0,0.0
1664548952306,-1.015625,0.17089844,-0.020507812,-0.8125,-8.125,9.8125,0.0,0.0,0.0
1664548952337,-0.9863281,0.12988281,-0.0087890625,-10.8125,-12.1875,5.0625,0.0,0.0,0.0
1664548952356,-1.1367188,0.25195312,-0.08203125,-15.25,-19.46875,8.15625,0.0,0.0,0.0
1664548952425,-0.9189453,0.29003906,-0.036132812,-30.40625,-18.375,7.8125,0.0,0.0,0.0
1664548952430,-1.0859375,0.19433594,-0.15527344,-25.21875,-24.84375,17.375,0.0,0.0,0.0
1664548952459,-0.9658203,0.16113281,-0.04296875,0.71875,-27.09375,26.84375,-79.9375,-38.6875,-127.5625
1664548952506,-0.8457031,0.37695312,0.08984375,-16.125,-16.65625,14.6875,0.0,0.0,0.0
1664548952549,-1.0175781,0.05859375,0.060546875,-12.03125,14.90625,12.5625,0.0,0.0,0.0
1664548952550,-0.85546875,0.4296875,0.13964844,-7.4375,15.75,-3.5625,0.0,0.0,0.0
1664548952592,-0.9296875,0.3876953,0.51953125,-19.84375,15.15625,11.15625,0.0,0.0,0.0
1664548952617,-1.1054688,0.19726562,0.359375,-9.78125,-5.65625,9.03125,0.0,0.0,0.0
1664548952671,-1.0009766,0.10449219,0.203125,0.84375,-17.75,-1.84375,0.0,0.0,0.0
1664548952714,-0.91308594,0.18847656,0.13867188,15.0,-13.3125,-1.71875,0.0,0.0,0.0
1664548952739,-0.8671875,0.4169922,0.009765625,26.96875,-8.0,-0.0625,0.0,0.0,0.0
1664548952768,-0.92871094,0.48046875,0.11035156,24.34375,2.03125,2.90625,0.0,0.0,0.0
1664548952856,-0.9296875,0.40234375,0.1953125,-2.9375,1.65625,0.78125,0.0,0.0,0.0
1664548952887,-0.96875,0.29785156,0.14746094,-9.96875,2.6875,-2.15625,0.0,0.0,0.0
1664548952945,-0.96777344,0.19433594,0.12207031,-6.21875,3.96875,-4.28125,-78.125,-38.6875,-125.625
1664548952981,-0.9814453,0.2705078,0.12792969,6.71875,-1.8125,-3.0625,0.0,0.0,0.0
1664548953011,-0.9423828,0.30566406,0.10546875,8.96875,0.1875,-4.53125,0.0,0.0,0.0
1664548953045,-0.953125,0.30859375,0.09277344,2.4375,1.71875,-3.4375,0.0,0.0,0.0
1664548953081,-0.95996094,0.3046875,0.09277344,0.0,1.78125,-4.78125,0.0,0.0,0.0
