# Sensor type: Thingy
# Activity type: Falling on the left
# Activity code: 45
# Subject id: s1956488
# Notes: 1
timestamp,accel_x,accel_y,accel_z,gyro_x,gyro_y,gyro_z,mag_x,mag_y,mag_z
1664548847423,-0.8359375,0.23144531,0.28320312,-8.375,-7.3125,1.375,0.0,0.0,0.0
1664548847483,-0.96191406,0.24511719,0.24804688,-4.15625,-2.875,7.5625,0.0,0.0,0.0
1664548847484,-0.96972656,0.26757812,0.2734375,-11.25,-7.0,5.84375,-69.0,-35.8125,-88.375
1664548847515,-0.93066406,0.21875,0.28027344,-26.4375,-11.90625,7.96875,0.0,0.0,0.0
1664548847588,-0.89941406,0.20703125,0.50683594,-37.0625,-36.0625,7.96875,0.0,0.0,0.0
1664548847618,-0.7792969,0.20898438,0.74609375,-49.1875,-59.0,8.84375,0.0,0.0,0.0
1664548847671,-0.6796875,0.18261719,0.50097656,-13.5,-69.21875,2.0625,0.0,0.0,0.0
1664548847786,-0.7001953,-0.00390625,-0.26171875,28.5625,-18.78125,9.125,0.0,0.0,0.0
1664548847792,-1.3085938,0.3359375,-0.47753906,46.9375,28.09375,-5.6875,0.0,0.0,0.0
1664548847820,-1.9863281,0.7548828,-0.0029296875,81.40625,46.40625,7.96875,0.0,0.0,0.0
1664548847874,-1.9521484,1.0302734,-0.32128906,76.78125,98.53125,24.71875,0.0,0.0,0.0
1664548847885,-1.6210938,1.8173828,-0.045898438,62.1875,137.21875,50.03125,0.0,0.0,0.0
1664548847911,-0.9404297,0.859375,0.3515625,-11.59375,120.625,102.34375,0.0,0.0,0.0
1664548847996,-1.6972656,-0.5576172,0.7216797,-113.84375,50.90625,74.4375,0.0,0.0,0.0
1664548848022,-1.0292969,-0.20996094,0.8408203,16.09375,-154.71875,-7.15625,0.0,0.0,0.0
1664548848062,-0.4248047,0.30078125,-0.0146484375,-135.125,-34.34375,-17.28125,-66.75,-23.5,-91.875
1664548848105,-0.37109375,0.5371094,0.3310547,-115.1875,-77.6875,-3.375,0.0,0.0,0.0
1664548848132,-0.4892578,0.44726562,-0.28320312,49.1875,-109.96875,24.875,0.0,0.0,0.0
1664548848186,-0.31933594,0.49023438,0.203125,15.0625,-74.34375,37.65625,0.0,0.0,0.0
1664548848248,-0.33007812,0.78222656,0.33984375,-70.625,8.4375,60.65625,0.0,0.0,0.0
1664548848282,-0.50097656,0.7285156,0.068359375,-66.09375,57.375,73.46875,0.0,0.0,0.0
1664548848294,-0.5253906,0.36621094,0.02734375,-46.75,94.1875,85.5,0.0,0.0,0.0
1664548848349,-0.61328125,0.49804688,0.015625,-84.25,183.59375,71.53125,0.0,0.0,0.0
1664548848367,-0.625,0.5878906,-0.049804688,-71.28125,198.90625,60.34375,0.0,0.0,0.0
1664548848391,-0.5673828,0.5722656,-0.08105469,-99.5625,217.90625,56.3125,0.0,0.0,0.0
1664548848428,-0.6660156,0.45898438,-0.33007812,-122.25,237.0625,41.78125,0.0,0.0,0.0
1664548848476,-0.94140625,0.5810547,-0.0029296875,-124.75,220.71875,19.5625,0.0,0.0,0.0
1664548848512,-1.5019531,0.43945312,0.38378906,-158.9375,184.875,-26.9375,-75.4375,-28.625,-100.875
1664548848578,-1.0800781,0.23144531,-0.04296875,-128.71875,190.0,-101.46875,0.0,0.0,0.0
1664548848611,-0.5908203,0.8232422,0.12988281,-82.84375,107.5625,-70.5,0.0,0.0,0.0
1664548848635,-0.8300781,0.25,-0.16699219,-60.0,58.46875,-7.40625,0.0,0.0,0.0
1664548848739,-0.9433594,0.19824219,-0.015625,-7.21875,27.59375,-14.0625,0.0,0.0,0.0
1664548848768,-1.0224609,0.15429688,-0.0625,-30.84375,43.78125,-21.875,0.0,0.0,0.0
1664548848832,-1.0439453,0.43164062,0.0029296875,-32.21875,36.03125,-18.5,0.0,0.0,0.0
1664548848881,-1.0898438,0.42773438,0.001953125,-70.0,25.6875,-18.4375,0.0,0.0,0.0
1664548848925,-0.9277344,0.45507812,-0.048828125,-87.78125,24.125,-27.25,0.0,0.0,0.0
1664548848942,-0.8574219,0.47753906,-0.0625,-98.46875,33.625,-37.1875,0.0,0.0,0.0
1664548848987,-0.86328125,0.42578125,0.04296875,-75.5625,28.5,-12.65625,0.0,0.0,0.0
1664548849012,-0.9404297,0.15332031,0.025390625,-56.84375,18.8125,4.875,0.0,0.0,0.0
1664548849047,-1.203125,-0.078125,-0.080078125,-18.125,4.71875,5.78125,0.0,0.0,0.0
1664548849090,-1.0126953,0.46777344,-0.06640625,25.8125,-33.9375,5.96875,-80.875,-40.0,-118.875
1664548849121,-0.84472656,0.5498047,-0.125,6.40625,-30.6875,5.59375,0.0,0.0,0.0
1664548849142,-0.92871094,0.51464844,-0.024414062,-13.8125,-40.75,6.5,0.0,0.0,0.0
1664548849234,-1.0458984,0.4482422,0.0703125,-52.9375,-68.53125,-2.8125,0.0,0.0,0.0
1664548849253,-0.9375,0.4921875,0.02734375,-85.34375,-89.78125,-25.28125,0.0,0.0,0.0
1664548849291,-0.9248047,0.42089844,-0.12890625,-71.71875,-133.96875,-35.34375,0.0,0.0,0.0
1664548849373,-0.81152344,0.32714844,0.12695312,-92.96875,-138.375,-23.09375,0.0,0.0,0.0
1664548849404,-0.8564453,0.08691406,0.15820312,-80.9375,-141.71875,-6.125,0.0,0.0,0.0
1664548849441,-0.65625,0.038085938,0.26464844,-36.1875,-130.25,6.875,0.0,0.0,0.0
1664548849484,-0.48535156,0.11328125,0.30371094,-14.46875,-142.875,6.6875,0.0,0.0,0.0
1664548849531,-0.4111328,-0.1484375,0.5029297,-42.0625,-122.96875,13.21875,0.0,0.0,0.0
1664548849563,-0.4189453,0.140625,0.7558594,-25.65625,-87.875,-9.40625,0.0,0.0,0.0
1664548849634,-0.43652344,-0.05859375,0.5048828,-8.5625,-75.125,-15.8125,-67.9375,-47.5,-81.9375
1664548849667,-0.96875,0.4375,0.74902344,7.3125,-118.65625,22.6875,0.0,0.0,0.0
1664548849699,-0.5263672,0.4423828,0.7998047,34.84375,-161.84375,25.8125,0.0,0.0,0.0
1664548849741,-0.47070312,0.5058594,0.5283203,52.78125,-149.28125,58.09375,0.0,0.0,0.0
1664548849774,-0.38671875,0.60546875,0.9501953,32.40625,-161.6875,66.9375,0.0,0.0,0.0
1664548849799,-0.10058594,0.3095703,0.9628906,32.9375,-151.53125,84.15625,0.0,0.0,0.0
1664548849851,-0.059570312,0.5683594,0.6347656,31.125,-159.34375,101.59375,0.0,0.0,0.0
1664548849880,-0.111328125,0.15234375,0.6513672,27.21875,-141.59375,102.09375,0.0,0.0,0.0
1664548849905,0.20019531,0.19921875,0.5917969,76.84375,-155.875,93.0,0.0,0.0,0.0
1664548849978,0.31640625,0.66796875,0.54589844,66.53125,-161.90625,111.25,0.0,0.0,0.0
1664548849994,0.32421875,0.6171875,0.62597656,-58.40625,-134.625,167.03125,0.0,0.0,0.0
1664548850002,1.5986328,1.4150391,1.9931641,-60.8125,-59.0625,101.71875,0.0,0.0,0.0
1664548850085,2.0136719,-0.49316406,1.9931641,36.0,90.65625,-80.28125,0.0,0.0,0.0
1664548850087,0.4970703,-0.14550781,0.58496094,75.6875,77.9375,43.5,-20.6875,-38.6875,-71.3125
1664548850096,0.0048828125,0.6357422,0.48339844,224.3125,-44.0625,73.21875,0.0,0.0,0.0
1664548850158,0.016601562,0.61328125,0.83691406,126.15625,-36.0,85.1875,0.0,0.0,0.0
1664548850176,0.32421875,-0.051757812,0.21777344,98.3125,1.78125,28.4375,0.0,0.0,0.0
1664548850214,0.48339844,0.15332031,0.1875,55.21875,13.1875,-17.40625,0.0,0.0,0.0
1664548850257,0.36035156,0.69921875,-0.0146484375,64.09375,-6.09375,-44.15625,0.0,0.0,0.0
1664548850287,0.8066406,1.2900391,0.12890625,-24.40625,42.25,-55.5,0.0,0.0,0.0
1664548850304,1.5722656,0.7548828,0.6972656,-30.46875,48.21875,-103.59375,0.0,0.0,0.0
1664548850371,1.2607422,0.35742188,0.59472656,4.875,15.4375,-73.5,0.0,0.0,0.0
1664548850410,0.5859375,0.3857422,0.43359375,8.96875,66.71875,-68.4375,0.0,0.0,0.0
1664548850431,0.2548828,0.6855469,0.26367188,87.875,30.40625,-61.46875,0.0,0.0,0.0
1664548850500,0.28808594,0.81347656,0.3671875,42.59375,54.34375,-39.625,0.0,0.0,0.0
1664548850541,0.46972656,1.4179688,0.27246094,29.59375,4.40625,2.59375,-34.0625,-15.5625,-81.375
1664548850562,0.5292969,1.7802734,0.5654297,48.53125,-37.15625,25.0,0.0,0.0,0.0
1664548850602,0.095703125,0.99902344,0.19726562,-55.65625,-9.15625,25.0,0.0,0.0,0.0
1664548850632,0.037109375,0.87597656,0.049804688,-57.0,-50.84375,6.6875,0.0,0.0,0.0
1664548850665,0.27734375,0.8046875,0.7607422,-86.8125,-63.46875,-17.96875,0.0,0.0,0.0
1664548850714,0.46191406,0.8564453,0.2783203,-33.5625,-82.15625,-7.875,0.0,0.0,0.0
1664548850725,0.44628906,0.6123047,0.6689453,-107.1875,-30.8125,-8.0625,0.0,0.0,0.0
1664548850745,0.5761719,0.47265625,0.59472656,-34.125,-58.9375,2.84375,0.0,0.0,0.0
1664548850795,0.62109375,0.59765625,0.60253906,-30.84375,-43.3125,0.71875,0.0,0.0,0.0
1664548850806,0.45410156,0.7128906,0.484375,-41.15625,-37.28125,4.25,0.0,0.0,0.0
1664548850825,0.40234375,0.6777344,0.6201172,-55.71875,-28.8125,-3.875,0.0,0.0,0.0
1664548850892,0.46484375,0.5625,0.64941406,-69.9375,-15.5625,-6.65625,0.0,0.0,0.0
1664548850922,0.31445312,0.35253906,0.6845703,-69.9375,16.96875,-15.15625,0.0,0.0,0.0
1664548850941,0.23828125,0.43066406,0.9248047,-32.46875,10.5625,-20.40625,-21.3125,-29.1875,-72.0625
1664548850990,0.578125,0.5410156,0.85546875,-15.21875,13.625,-11.96875,0.0,0.0,0.0
1664548851016,0.5605469,0.6298828,0.8964844,-29.125,-9.9375,-7.59375,0.0,0.0,0.0
1664548851042,0.40625,0.58984375,0.6230469,-31.5,-9.09375,-16.25,0.0,0.0,0.0
1664548851096,0.5214844,0.5908203,0.53125,-1.15625,-16.71875,-24.5,0.0,0.0,0.0
1664548851128,0.5234375,0.7705078,0.74902344,-24.34375,-1.34375,-23.09375,0.0,0.0,0.0
1664548851183,0.5673828,0.9326172,0.7988281,-32.84375,-26.40625,3.15625,0.0,0.0,0.0
1664548851232,0.6230469,0.7089844,0.80371094,-39.875,-23.25,-1.84375,0.0,0.0,0.0
1664548851247,0.71972656,0.6689453,1.0507812,4.03125,-21.1875,14.09375,0.0,0.0,0.0
1664548851294,0.4658203,0.8330078,0.72753906,24.09375,-0.78125,-13.6875,0.0,0.0,0.0
1664548851336,0.51171875,0.5878906,0.734375,19.90625,5.875,-19.1875,0.0,0.0,0.0
1664548851368,0.53027344,0.6035156,0.9033203,47.53125,14.96875,-22.0625,0.0,0.0,0.0
1664548851404,0.4326172,0.6904297,0.7558594,43.6875,24.53125,-31.21875,-18.75,-34.625,-69.8125
1664548851456,0.30273438,0.5283203,0.8183594,3.28125,44.9375,-40.71875,0.0,0.0,0.0
1664548851503,0.083984375,0.25195312,0.6513672,35.8125,40.46875,-70.375,0.0,0.0,0.0
1664548851533,0.22949219,0.54785156,0.7294922,58.46875,38.28125,-84.5625,0.0,0.0,0.0
1664548851578,-9.765625E-4,0.4345703,0.7519531,56.875,30.15625,-103.40625,0.0,0.0,0.0
1664548851607,0.11230469,0.5371094,0.5361328,23.96875,46.5625,-98.03125,0.0,0.0,0.0
1664548851639,0.12597656,0.41601562,0.4814453,30.03125,27.65625,-114.09375,0.0,0.0,0.0
1664548851698,0.23730469,0.5341797,0.59472656,19.65625,1.84375,-101.34375,0.0,0.0,0.0
1664548851762,-0.040039062,0.328125,0.32421875,40.46875,-19.46875,-86.375,0.0,0.0,0.0
1664548851792,-0.15625,0.5332031,0.25683594,95.9375,-72.25,-84.78125,0.0,0.0,0.0
1664548851922,0.08300781,0.77246094,0.3486328,94.21875,-92.78125,-42.5,0.0,0.0,0.0
1664548851924,0.009765625,1.3203125,0.34765625,59.0,-92.875,-44.8125,0.0,0.0,0.0
1664548851926,0.0390625,1.2773438,0.36914062,-66.34375,-54.4375,-28.28125,0.0,0.0,0.0
1664548851968,0.12207031,0.734375,0.57128906,-60.3125,-64.15625,-27.78125,-30.875,-21.125,-73.6875
1664548851970,-0.33691406,1.0078125,0.53222656,-56.09375,-61.8125,-26.6875,0.0,0.0,0.0
1664548852021,-0.3779297,0.73339844,0.8105469,-4.78125,-62.90625,-52.8125,0.0,0.0,0.0
1664548852171,-0.1640625,1.0068359,0.31054688,-4.8125,-25.3125,-54.34375,0.0,0.0,0.0
1664548852174,0.18652344,0.8388672,0.71972656,-19.40625,-40.09375,-17.84375,0.0,0.0,0.0
1664548852175,-0.20507812,0.8105469,0.5410156,-54.3125,-17.21875,4.6875,0.0,0.0,0.0
1664548852237,-0.09667969,0.74121094,0.69628906,-33.46875,-22.75,8.40625,0.0,0.0,0.0
1664548852239,-0.078125,0.56347656,0.6542969,-21.6875,-16.34375,-10.09375,0.0,0.0,0.0
1664548852242,-0.23339844,0.86621094,0.67089844,-34.84375,-18.0,-30.71875,0.0,0.0,0.0
1664548852311,-0.041992188,0.80859375,0.6064453,-28.09375,-37.96875,-26.5625,0.0,0.0,0.0
1664548852327,-0.10644531,0.7714844,0.48046875,-40.46875,-47.1875,-11.125,0.0,0.0,0.0
1664548852361,-0.041992188,0.8886719,0.6855469,-58.84375,-53.875,-5.21875,0.0,0.0,0.0
1664548852444,-0.057617188,0.67285156,0.6386719,-49.3125,-47.0,6.625,-22.5,-31.0,-66.625
1664548852453,-0.11230469,0.96972656,0.27441406,-51.875,-62.90625,33.375,0.0,0.0,0.0
1664548852487,-0.013671875,0.6191406,0.94628906,-81.5,-51.5,37.8125,0.0,0.0,0.0
1664548852541,0.0,0.6347656,0.9580078,-87.03125,-45.09375,14.875,0.0,0.0,0.0
1664548852592,0.06347656,0.6738281,1.1015625,-87.59375,-40.59375,-0.625,0.0,0.0,0.0
1664548852635,0.1640625,0.7783203,1.0605469,-92.71875,-20.875,-22.90625,0.0,0.0,0.0
1664548852747,0.23632812,0.5371094,1.1523438,-88.09375,11.96875,-38.34375,0.0,0.0,0.0
1664548852749,0.27734375,0.3310547,1.5341797,-93.875,37.71875,-57.625,0.0,0.0,0.0
1664548852751,0.16503906,0.33984375,1.2783203,-83.75,60.1875,-56.46875,0.0,0.0,0.0
1664548852785,0.29492188,0.19238281,1.0273438,-42.5,58.34375,-51.15625,0.0,0.0,0.0
1664548852805,0.078125,0.001953125,1.0820312,-10.03125,97.125,-70.9375,0.0,0.0,0.0
1664548852842,0.026367188,0.06640625,1.1074219,21.65625,100.34375,-82.71875,0.0,0.0,0.0
1664548852905,0.0146484375,0.046875,0.8886719,31.125,91.0,-59.90625,0.0,0.0,0.0
1664548852958,-0.07421875,0.0087890625,0.89453125,47.78125,89.5,-55.8125,-29.5625,-48.875,-63.1875
1664548852991,-0.14257812,0.265625,0.74902344,19.9375,96.125,-47.25,0.0,0.0,0.0
1664548853045,-0.2705078,0.12695312,0.81347656,-11.0,112.3125,-7.46875,0.0,0.0,0.0
1664548853079,-0.4375,0.14648438,0.86621094,-2.4375,110.125,4.5625,0.0,0.0,0.0
1664548853112,-0.4169922,0.09863281,0.8095703,-8.4375,113.78125,10.59375,0.0,0.0,0.0
1664548853164,-0.5107422,0.18164062,0.76464844,-4.71875,97.0,10.71875,0.0,0.0,0.0
1664548853193,-0.62402344,0.10644531,0.6142578,-1.53125,114.09375,9.875,0.0,0.0,0.0
1664548853224,-0.64160156,0.15625,0.62402344,0.40625,124.21875,17.9375,0.0,0.0,0.0
1664548853364,-0.57714844,0.3623047,0.48339844,-2.5625,145.625,44.65625,0.0,0.0,0.0
1664548853365,-0.8486328,0.21777344,0.50683594,-10.8125,158.75,46.90625,0.0,0.0,0.0
1664548853366,-0.9394531,0.13476562,0.4638672,-2.6875,133.75,28.25,0.0,0.0,0.0
1664548853393,-0.53222656,0.16992188,0.19628906,-6.40625,134.15625,33.6875,0.0,0.0,0.0
1664548853410,-0.8808594,0.41210938,0.39648438,-31.5625,115.71875,34.15625,-73.375,-42.4375,-86.625
1664548853446,-0.9580078,0.055664062,0.23242188,-61.84375,133.125,-4.90625,0.0,0.0,0.0
1664548853498,-0.8769531,0.42773438,0.043945312,-74.84375,132.21875,8.65625,0.0,0.0,0.0
1664548853526,-0.9453125,0.4169922,0.15625,-37.375,69.59375,26.46875,0.0,0.0,0.0
1664548853565,-0.82714844,0.083984375,0.00390625,-71.40625,79.40625,7.84375,0.0,0.0,0.0
1664548853730,-1.1425781,0.20019531,-0.07519531,-52.0625,98.8125,3.65625,0.0,0.0,0.0
1664548853733,-1.1611328,0.6845703,0.26660156,-27.65625,47.90625,-6.71875,0.0,0.0,0.0
1664548853736,-0.29492188,0.58691406,0.051757812,-39.1875,44.1875,-2.59375,0.0,0.0,0.0
1664548853756,-1.0078125,-0.03125,-0.14453125,-76.59375,68.84375,4.5625,0.0,0.0,0.0
1664548853781,-1.1835938,-0.16992188,-0.0703125,-16.65625,22.53125,5.34375,0.0,0.0,0.0
1664548853796,-1.0917969,0.5341797,-0.32128906,14.03125,-21.0,-0.875,0.0,0.0,0.0
1664548853878,-0.6699219,0.8144531,-0.11425781,-3.0625,-3.28125,-2.15625,0.0,0.0,0.0
1664548853917,-0.8886719,0.3984375,-0.18164062,-23.5,14.34375,18.65625,0.0,0.0,0.0
1664548853960,-1.1289062,0.28125,-0.12402344,-14.96875,0.75,12.625,-81.125,-44.8125,-111.0625
1664548853999,-0.828125,0.42871094,-0.009765625,-2.9375,-17.09375,-2.21875,0.0,0.0,0.0
1664548854038,-0.8457031,0.4814453,-0.15429688,-2.4375,-6.71875,7.96875,0.0,0.0,0.0
1664548854078,-0.9863281,0.38476562,-0.060546875,-17.59375,8.1875,15.3125,0.0,0.0,0.0
1664548854160,-0.9404297,0.515625,0.018554688,-25.21875,-2.125,8.78125,0.0,0.0,0.0
1664548854176,-0.9238281,0.42382812,-0.03515625,-45.90625,-4.4375,7.90625,0.0,0.0,0.0
1664548854192,-0.8876953,0.38378906,-0.052734375,-55.96875,-5.71875,3.46875,0.0,0.0,0.0
1664548854261,-0.97753906,0.31933594,-0.048828125,-57.0,-14.8125,0.59375,0.0,0.0,0.0
1664548854285,-0.95214844,0.3359375,0.013671875,-51.875,-23.375,6.46875,0.0,0.0,0.0
1664548854307,-1.0058594,0.43164062,0.08203125,-62.09375,-36.25,6.40625,0.0,0.0,0.0
1664548854345,-0.85839844,0.4267578,0.15820312,-77.875,-42.53125,5.90625,0.0,0.0,0.0
1664548854367,-1.0625,0.25878906,0.16796875,-81.5625,-39.3125,7.375,0.0,0.0,0.0
1664548854403,-0.92578125,0.22363281,0.21582031,-66.03125,-55.28125,3.78125,-79.5,-44.5,-102.5
1664548854506,-0.7783203,0.33007812,0.2109375,-77.28125,-83.0,1.21875,0.0,0.0,0.0
1664548854509,-0.6933594,0.103515625,0.2265625,-38.59375,-117.4375,12.0625,0.0,0.0,0.0
1664548854532,-0.6347656,0.15722656,0.28027344,-32.59375,-136.96875,39.46875,0.0,0.0,0.0
1664548854589,-0.56347656,0.26660156,0.4423828,-64.71875,-129.6875,29.84375,0.0,0.0,0.0
1664548854623,-0.67089844,0.21777344,0.37597656,-58.71875,-97.90625,21.78125,0.0,0.0,0.0
1664548854653,-0.734375,0.041992188,0.44140625,-84.65625,-93.4375,8.28125,0.0,0.0,0.0
1664548854725,-0.5419922,0.061523438,0.68066406,-56.28125,-51.1875,-19.4375,0.0,0.0,0.0
1664548854745,-0.67285156,0.42285156,0.6669922,-23.1875,-121.75,23.96875,0.0,0.0,0.0
1664548854767,-0.41308594,0.026367188,0.9111328,-15.4375,-124.0625,44.28125,0.0,0.0,0.0
1664548854818,-0.5654297,0.10449219,0.60839844,18.625,-135.4375,54.78125,0.0,0.0,0.0
1664548854853,-0.8964844,0.5488281,0.8154297,48.46875,-171.0625,71.21875,0.0,0.0,0.0
1664548854877,-0.22167969,0.78027344,0.5332031,25.8125,-172.53125,95.4375,0.0,0.0,0.0
1664548854954,-0.109375,0.01953125,0.78808594,-5.875,-110.65625,109.40625,-44.375,-45.125,-64.25
1664548854986,-0.005859375,0.040039062,0.82421875,38.09375,-141.71875,97.46875,0.0,0.0,0.0
1664548854995,0.2890625,0.22753906,0.69140625,71.46875,-155.3125,103.9375,0.0,0.0,0.0
1664548855067,0.0546875,-0.078125,0.56640625,111.875,-148.96875,87.5,0.0,0.0,0.0
1664548855088,0.14550781,0.6953125,0.390625,100.21875,-168.03125,106.0625,0.0,0.0,0.0
1664548855130,0.61035156,0.8046875,0.75878906,-74.59375,-136.40625,209.8125,0.0,0.0,0.0
1664548855182,2.0136719,2.015625,1.9931641,-96.125,-30.5,54.5,0.0,0.0,0.0
1664548855215,1.9775391,-1.4667969,1.7890625,17.9375,87.03125,-20.09375,0.0,0.0,0.0
1664548855263,1.8417969,0.26367188,1.1113281,107.59375,29.65625,-19.71875,0.0,0.0,0.0
1664548855313,-0.020507812,0.22265625,0.68359375,160.34375,-12.25,57.0,0.0,0.0,0.0
1664548855356,0.016601562,0.14550781,0.3154297,110.28125,13.0,28.78125,0.0,0.0,0.0
1664548855386,0.38378906,0.28320312,0.5654297,108.15625,-26.0,36.90625,0.0,0.0,0.0
1664548855454,0.9941406,0.453125,0.55859375,-20.4375,0.0,-2.15625,-17.125,-28.1875,-73.375
1664548855457,0.95214844,0.24804688,0.12695312,22.40625,15.75,-78.6875,0.0,0.0,0.0
1664548855480,0.8701172,0.4814453,0.44726562,65.90625,2.75,-115.375,0.0,0.0,0.0
1664548855552,0.5800781,0.51464844,-0.18457031,9.15625,61.03125,-83.03125,0.0,0.0,0.0
1664548855636,0.5566406,0.79589844,0.48242188,51.1875,-15.3125,-96.34375,0.0,0.0,0.0
1664548855638,0.6542969,0.65527344,0.11230469,-32.34375,53.28125,-76.25,0.0,0.0,0.0
1664548855688,0.5683594,0.9248047,0.6171875,92.65625,-19.53125,-45.71875,0.0,0.0,0.0
1664548855711,0.2763672,1.2470703,0.29882812,12.8125,-5.65625,-1.84375,0.0,0.0,0.0
1664548855723,0.28222656,1.2246094,0.32617188,-5.5,-8.21875,-2.34375,0.0,0.0,0.0
1664548855777,0.3203125,0.9345703,0.27148438,-42.1875,21.0625,-0.6875,0.0,0.0,0.0
1664548855816,0.20898438,0.95410156,0.28515625,-17.84375,2.8125,-2.9375,0.0,0.0,0.0
1664548855838,0.16992188,0.8486328,0.30371094,-26.9375,11.53125,-5.4375,0.0,0.0,0.0
1664548855914,0.2890625,0.96875,0.57910156,-26.25,21.25,-9.0625,0.0,0.0,0.0
1664548855933,0.4326172,0.8251953,0.46484375,-45.0,34.375,3.40625,-31.5,-20.9375,-75.1875
1664548855958,0.31933594,0.7529297,0.60058594,-33.40625,12.40625,12.0625,0.0,0.0,0.0
1664548856021,0.4248047,0.76171875,0.7548828,-44.8125,6.96875,23.4375,0.0,0.0,0.0
1664548856051,0.26660156,0.64746094,0.7363281,-13.9375,-9.40625,34.28125,0.0,0.0,0.0
1664548856080,0.33203125,0.5341797,0.8486328,-56.15625,0.25,31.0625,0.0,0.0,0.0
1664548856172,0.31640625,0.55859375,0.8183594,-43.53125,-15.1875,16.9375,0.0,0.0,0.0
1664548856179,0.27246094,0.2939453,0.9042969,-37.96875,-12.03125,11.03125,0.0,0.0,0.0
1664548856200,0.30273438,0.3515625,0.7597656,-19.90625,-6.03125,5.21875,0.0,0.0,0.0
1664548856262,0.453125,0.39746094,0.7167969,-18.4375,4.9375,-4.03125,0.0,0.0,0.0
1664548856290,0.5332031,0.37890625,0.8125,-1.65625,26.9375,-23.8125,0.0,0.0,0.0
1664548856351,0.36816406,0.36132812,0.9248047,2.75,26.875,-52.09375,0.0,0.0,0.0
1664548856382,0.421875,0.34960938,0.8886719,5.71875,12.8125,-75.15625,0.0,0.0,0.0
1664548856410,0.4716797,0.5214844,0.54296875,-23.03125,56.9375,-82.0,-32.25,-27.5625,-69.8125
1664548856438,0.29003906,0.7558594,0.9238281,22.75,47.96875,-82.34375,0.0,0.0,0.0
1664548856505,-0.18652344,0.9267578,0.7451172,61.9375,35.65625,-59.71875,0.0,0.0,0.0
1664548856532,0.02734375,1.1123047,0.8613281,52.71875,46.875,-45.0,0.0,0.0,0.0
1664548856559,0.125,0.96777344,0.7128906,68.46875,21.0,-20.59375,0.0,0.0,0.0
1664548856620,0.07421875,0.8095703,0.7001953,81.46875,28.875,-29.96875,0.0,0.0,0.0
1664548856651,-0.13476562,0.8798828,0.3935547,77.5625,26.9375,-31.375,0.0,0.0,0.0
1664548856680,-0.125,1.2421875,0.7705078,114.8125,0.3125,-32.375,0.0,0.0,0.0
1664548856773,-0.17773438,1.0644531,0.36523438,76.71875,29.4375,-63.8125,0.0,0.0,0.0
1664548856779,-0.3955078,0.9453125,0.20800781,51.875,30.46875,-63.5,0.0,0.0,0.0
1664548856799,-0.37597656,0.8095703,0.18847656,77.9375,19.71875,-56.0,0.0,0.0,0.0
1664548856859,-0.52734375,1.0087891,0.34179688,88.0,0.625,-67.09375,0.0,0.0,0.0
1664548856889,-0.21875,0.6689453,0.25878906,76.84375,20.46875,-78.09375,0.0,0.0,0.0
1664548856919,-0.43066406,0.3857422,0.20800781,102.28125,9.15625,-81.6875,-55.625,-12.6875,-89.3125
1664548856982,-0.49023438,0.7714844,0.14550781,115.84375,-15.1875,-83.21875,0.0,0.0,0.0
1664548857010,-0.42773438,0.9785156,9.765625E-4,130.71875,-2.1875,-79.25,0.0,0.0,0.0
1664548857039,-0.4638672,1.2255859,-0.17480469,103.03125,-18.4375,-31.15625,0.0,0.0,0.0
1664548857104,-0.27734375,1.0048828,0.06347656,104.0625,-47.59375,-13.5625,0.0,0.0,0.0
1664548857130,-0.25976562,1.0292969,-0.057617188,18.375,-48.875,7.84375,0.0,0.0,0.0
1664548857159,-0.30273438,1.0957031,-0.17578125,-1.90625,-78.71875,38.9375,0.0,0.0,0.0
1664548857219,-0.13183594,0.6347656,-0.0107421875,-33.15625,-38.375,14.28125,0.0,0.0,0.0
1664548857253,-0.2939453,0.6308594,-0.15820312,-24.84375,-73.0,17.4375,0.0,0.0,0.0
1664548857280,-0.27246094,0.6503906,0.076171875,-26.625,-88.96875,20.8125,0.0,0.0,0.0
1664548857341,-0.23632812,0.7402344,0.27441406,-36.25,-116.3125,18.59375,0.0,0.0,0.0
1664548857370,-0.38476562,1.1425781,0.34375,-72.03125,-112.3125,10.25,0.0,0.0,0.0
1664548857400,-0.6220703,1.3808594,0.32421875,-123.1875,-70.0,-36.8125,-49.625,-14.9375,-86.875
1664548857468,-0.26953125,0.8076172,0.21875,-105.84375,-70.5625,-73.75,0.0,0.0,0.0
1664548857490,-0.39941406,0.7871094,0.5263672,-14.90625,-89.15625,-57.28125,0.0,0.0,0.0
1664548857517,-0.107421875,0.89160156,0.31835938,16.84375,-89.09375,-22.90625,0.0,0.0,0.0
1664548857582,-0.42285156,0.9980469,0.6171875,-16.5,-77.3125,-5.5,0.0,0.0,0.0
1664548857610,-0.11035156,0.55859375,0.390625,-13.5625,-68.28125,-4.59375,0.0,0.0,0.0
1664548857638,-0.21484375,0.7578125,0.66015625,-13.5625,-87.15625,36.375,0.0,0.0,0.0
1664548857698,-0.3876953,0.5332031,0.6201172,-35.84375,-58.59375,30.0,0.0,0.0,0.0
1664548857727,-0.31054688,0.56152344,0.50878906,-27.90625,-32.78125,10.25,0.0,0.0,0.0
1664548857756,-0.13867188,0.65527344,0.3876953,-25.15625,-25.375,-12.03125,0.0,0.0,0.0
1664548857825,-0.40039062,0.44628906,0.5908203,-46.15625,31.6875,-10.03125,0.0,0.0,0.0
1664548857848,-0.41503906,0.5576172,1.1279297,-53.15625,-38.3125,-13.4375,0.0,0.0,0.0
1664548857876,-0.2998047,0.6904297,0.31054688,9.46875,-10.4375,-2.09375,0.0,0.0,0.0
1664548857943,-0.28027344,0.8203125,0.7548828,-28.03125,-50.53125,3.78125,-34.375,-27.25,-69.5
1664548857969,-0.17285156,0.6875,0.54296875,-52.875,-57.65625,0.03125,0.0,0.0,0.0
1664548858000,-0.28027344,0.7050781,0.6894531,-40.90625,-76.15625,8.09375,0.0,0.0,0.0
1664548858064,-0.26171875,0.85058594,0.57910156,-40.90625,-73.59375,7.125,0.0,0.0,0.0
1664548858090,-0.18066406,0.87402344,0.85839844,-68.65625,-74.53125,17.6875,0.0,0.0,0.0
1664548858121,-0.10644531,0.703125,0.98535156,-80.75,-55.90625,26.21875,0.0,0.0,0.0
1664548858178,0.020507812,0.53027344,1.1123047,-76.53125,-38.375,30.5,0.0,0.0,0.0
1664548858208,-0.005859375,0.6298828,1.1933594,-65.5,-35.40625,38.0625,0.0,0.0,0.0
1664548858237,0.1640625,0.37890625,1.1523438,-82.65625,-2.3125,17.25,0.0,0.0,0.0
1664548858300,0.265625,0.44628906,1.2998047,-75.8125,19.1875,-3.0,0.0,0.0,0.0
1664548858328,0.087890625,0.4794922,1.2021484,-87.03125,41.8125,-7.28125,0.0,0.0,0.0
1664548858360,0.078125,0.40722656,1.0195312,-72.21875,49.1875,-18.8125,0.0,0.0,0.0
1664548858424,0.17773438,0.26757812,1.1435547,-62.9375,62.09375,-19.71875,-21.3125,-51.4375,-66.625
1664548858453,-0.11621094,-0.21582031,1.1152344,-46.6875,101.8125,-34.5625,0.0,0.0,0.0
1664548858478,-0.024414062,0.03125,1.1884766,-1.09375,101.875,-38.21875,0.0,0.0,0.0
1664548858540,0.013671875,-0.072265625,0.85839844,-0.375,133.90625,-54.28125,0.0,0.0,0.0
1664548858568,-0.103515625,-0.055664062,0.88671875,-43.03125,149.0,-71.71875,0.0,0.0,0.0
1664548858603,-0.57714844,-0.1015625,0.9042969,-54.375,141.5625,-85.9375,0.0,0.0,0.0
1664548858661,-0.50878906,-0.12890625,0.7167969,3.34375,115.59375,-80.53125,0.0,0.0,0.0
1664548858690,-0.40820312,-0.23339844,0.5673828,42.59375,108.28125,-75.09375,0.0,0.0,0.0
1664548858757,-0.5175781,-0.046875,0.7265625,67.8125,68.25,-52.375,0.0,0.0,0.0
1664548858832,-0.63378906,-0.037109375,0.7783203,76.21875,54.9375,-57.15625,0.0,0.0,0.0
1664548858867,-0.4404297,0.3251953,0.59375,85.0625,40.15625,-35.78125,0.0,0.0,0.0
1664548858883,-0.74121094,0.08886719,0.7636719,38.375,28.03125,-11.375,0.0,0.0,0.0
1664548858932,-0.6152344,0.115234375,0.56640625,48.03125,17.09375,32.28125,0.0,0.0,0.0
1664548858970,-0.9873047,0.29492188,0.6845703,9.875,40.40625,64.8125,-56.875,-48.875,-71.0
1664548858977,-0.9658203,0.23242188,0.54003906,10.625,43.78125,64.0625,0.0,0.0,0.0
1664548859065,-0.87402344,0.22363281,0.62402344,18.90625,50.0625,57.78125,0.0,0.0,0.0
1664548859069,-0.6386719,0.28320312,0.67285156,29.59375,56.9375,71.6875,0.0,0.0,0.0
1664548859116,-0.8310547,0.44726562,0.61328125,29.78125,49.3125,105.09375,0.0,0.0,0.0
1664548859165,-0.6591797,0.31152344,0.40820312,-1.71875,41.4375,112.21875,0.0,0.0,0.0
1664548859201,-0.43652344,0.35546875,0.2763672,-14.28125,65.3125,97.21875,0.0,0.0,0.0
1664548859216,-0.5800781,0.5566406,0.32226562,17.9375,79.78125,97.28125,0.0,0.0,0.0
1664548859278,-0.6923828,0.42089844,0.24902344,-32.65625,127.9375,71.09375,0.0,0.0,0.0
1664548859288,-0.7138672,0.55566406,0.087890625,-63.96875,164.1875,60.21875,0.0,0.0,0.0
1664548859326,-0.8300781,0.56933594,0.12988281,-66.65625,187.03125,41.96875,0.0,0.0,0.0
1664548859382,-1.03125,0.66308594,0.22167969,-95.21875,166.75,34.71875,0.0,0.0,0.0
1664548859411,-1.0078125,0.14453125,0.14355469,-139.40625,173.96875,-18.25,-74.25,-34.4375,-96.1875
1664548859439,-0.9316406,0.048828125,-0.17382812,-118.40625,208.875,-89.84375,0.0,0.0,0.0
1664548859501,-0.7597656,1.0244141,0.23046875,-37.65625,138.5,-45.59375,0.0,0.0,0.0
1664548859533,-0.8144531,0.44726562,-0.051757812,-3.3125,50.53125,6.6875,0.0,0.0,0.0
1664548859558,-0.9238281,0.5341797,0.03515625,-28.4375,36.5,-12.46875,0.0,0.0,0.0
1664548859621,-0.8691406,0.29101562,-0.13574219,-42.90625,23.5,-23.4375,0.0,0.0,0.0
1664548859651,-0.95703125,0.29492188,0.028320312,-26.3125,6.28125,-15.625,0.0,0.0,0.0
1664548859680,-1.1533203,0.26171875,-0.09277344,-10.6875,0.625,-12.53125,0.0,0.0,0.0
1664548859743,-1.1181641,0.36132812,0.13183594,-15.21875,-12.6875,-13.4375,0.0,0.0,0.0
1664548859769,-0.98535156,0.4423828,0.076171875,-23.75,-2.96875,-10.5625,0.0,0.0,0.0
1664548859797,-0.8017578,0.38867188,0.047851562,-28.8125,13.1875,-3.5,0.0,0.0,0.0
1664548859858,-0.8652344,0.33007812,0.005859375,-29.90625,16.125,4.0625,0.0,0.0,0.0
1664548859888,-1.0703125,0.34277344,-0.07421875,-12.625,12.53125,7.0,0.0,0.0,0.0
1664548859923,-0.8808594,0.46777344,-0.059570312,-0.3125,6.90625,21.65625,-81.0,-44.375,-114.375
1664548859979,-0.9091797,0.42871094,-0.032226562,-12.6875,5.6875,21.09375,0.0,0.0,0.0
1664548860008,-1.0253906,0.44726562,-0.123046875,-0.125,-12.0625,5.28125,0.0,0.0,0.0
1664548860041,-0.8466797,0.5683594,-0.049804688,-16.90625,-17.03125,2.84375,0.0,0.0,0.0
1664548860101,-0.87109375,0.5185547,-0.029296875,-59.15625,-3.34375,3.28125,0.0,0.0,0.0
1664548860132,-0.9121094,0.2998047,-0.0546875,-61.53125,4.71875,3.84375,0.0,0.0,0.0
1664548860160,-0.92285156,0.359375,0.041015625,-55.375,-10.3125,2.78125,0.0,0.0,0.0
1664548860217,-0.9355469,0.4658203,0.09765625,-54.5,-37.15625,-2.59375,0.0,0.0,0.0
1664548860249,-1.0175781,0.30273438,0.11621094,-56.34375,-45.46875,-3.125,0.0,0.0,0.0
1664548860281,-0.98828125,0.35058594,0.14941406,-51.53125,-56.5625,-7.21875,0.0,0.0,0.0
1664548860338,-0.8466797,0.3701172,0.27929688,-48.15625,-67.375,-8.875,0.0,0.0,0.0
1664548860369,-0.9423828,0.2919922,0.28515625,-26.5,-70.0,-11.96875,0.0,0.0,0.0
1664548860406,-0.91308594,0.2841797,0.30859375,-25.6875,-76.40625,-8.375,-79.8125,-44.1875,-100.875
1664548860462,-0.8017578,0.2861328,0.27148438,-20.6875,-80.9375,-4.59375,0.0,0.0,0.0
1664548860489,-0.64941406,0.23242188,0.16015625,0.59375,-86.78125,5.53125,0.0,0.0,0.0
1664548860518,-0.43847656,0.21582031,0.23144531,11.71875,-97.09375,17.25,0.0,0.0,0.0
1664548860581,-0.3984375,0.22949219,0.4091797,-36.0625,-56.75,15.65625,0.0,0.0,0.0
1664548860612,-0.84375,0.3935547,0.359375,-63.65625,-36.75,-9.34375,0.0,0.0,0.0
1664548860639,-0.82910156,0.19726562,0.55566406,-54.8125,-38.8125,-30.34375,0.0,0.0,0.0
1664548860702,-0.52441406,0.10058594,0.48828125,-44.9375,-47.84375,-13.25,0.0,0.0,0.0
1664548860730,-0.9716797,0.21777344,0.88378906,-34.84375,-58.21875,-23.625,0.0,0.0,0.0
1664548860759,-0.7050781,0.35742188,0.78222656,24.53125,-122.5625,15.5,0.0,0.0,0.0
1664548860821,-0.5126953,0.2607422,0.3330078,-2.875,-106.1875,47.59375,0.0,0.0,0.0
1664548860850,-0.6855469,0.47851562,0.74121094,20.9375,-110.53125,48.25,0.0,0.0,0.0
1664548860879,-0.65625,0.11425781,0.63183594,-13.875,-80.6875,40.6875,0.0,0.0,0.0
1664548860941,-0.765625,0.24609375,0.6982422,-0.875,-120.59375,54.0,-57.4375,-48.125,-72.5
1664548860969,-0.21777344,0.34765625,0.5185547,26.96875,-156.125,73.90625,0.0,0.0,0.0
1664548861001,-0.14355469,0.22363281,0.640625,29.28125,-154.65625,95.0625,0.0,0.0,0.0
1664548861081,-0.11328125,0.16796875,0.6582031,50.03125,-156.65625,83.53125,0.0,0.0,0.0
1664548861141,0.029296875,0.09863281,0.45507812,77.09375,-152.09375,82.875,0.0,0.0,0.0
1664548861154,0.14355469,-0.14648438,0.5888672,112.53125,-166.9375,93.1875,0.0,0.0,0.0
1664548861204,0.46679688,0.6982422,0.6503906,47.0625,-148.375,142.4375,0.0,0.0,0.0
1664548861225,1.2451172,0.8857422,1.5058594,-15.3125,-88.3125,134.5625,0.0,0.0,0.0
1664548861259,2.0136719,1.5839844,1.9931641,17.3125,56.21875,-74.28125,0.0,0.0,0.0
1664548861353,0.234375,0.17871094,1.2753906,155.21875,73.6875,-35.71875,0.0,0.0,0.0
1664548861354,0.49414062,0.8466797,0.8720703,135.84375,84.59375,-9.78125,0.0,0.0,0.0
1664548861405,-0.35253906,0.8222656,0.20019531,174.25,-19.875,73.90625,0.0,0.0,0.0
1664548861441,0.265625,0.58691406,0.3857422,132.5625,-3.59375,108.1875,-27.875,-19.75,-77.3125
1664548861472,0.3828125,0.9326172,0.5732422,35.09375,39.375,68.59375,0.0,0.0,0.0
1664548861488,0.5722656,0.7675781,-0.064453125,-71.90625,105.90625,5.71875,0.0,0.0,0.0
1664548861542,1.2548828,0.7246094,0.5810547,11.46875,22.40625,-82.34375,0.0,0.0,0.0
1664548861591,1.0371094,0.14550781,0.6503906,44.4375,51.34375,-100.40625,0.0,0.0,0.0
1664548861621,0.27441406,0.7714844,0.20507812,82.5,15.03125,-60.625,0.0,0.0,0.0
1664548861660,0.359375,0.9003906,-0.0390625,100.8125,33.28125,-41.21875,0.0,0.0,0.0
1664548861687,0.47753906,0.99316406,0.22949219,99.71875,7.5,13.03125,0.0,0.0,0.0
1664548861719,0.6484375,1.0537109,0.31152344,-14.40625,9.65625,44.53125,0.0,0.0,0.0
1664548861777,0.30371094,0.90722656,-0.111328125,-56.09375,-18.375,38.3125,0.0,0.0,0.0
1664548861818,0.32421875,0.73535156,0.3642578,-7.34375,-5.71875,8.65625,0.0,0.0,0.0
1664548861848,0.31933594,0.8876953,0.38671875,-0.0625,-8.21875,-24.0,0.0,0.0,0.0
1664548861915,0.21582031,1.0292969,0.3330078,-42.71875,-18.84375,-27.3125,0.0,0.0,0.0
1664548861964,0.3017578,1.1162109,0.3330078,-27.09375,-30.625,-9.28125,-35.375,-12.4375,-84.1875
1664548862004,0.32128906,1.0527344,0.3701172,-52.9375,-25.8125,14.09375,0.0,0.0,0.0
1664548862061,0.32714844,0.76953125,0.32128906,-57.125,-28.75,18.28125,0.0,0.0,0.0
1664548862086,0.36132812,0.7626953,0.34277344,-55.5625,-6.40625,27.625,0.0,0.0,0.0
1664548862124,0.40039062,0.7832031,0.5986328,-37.0625,-10.25,21.71875,0.0,0.0,0.0
1664548862183,0.33398438,0.66503906,0.5214844,-55.0,11.96875,13.46875,0.0,0.0,0.0
1664548862198,0.2109375,0.50097656,0.4345703,-51.40625,12.75,12.625,0.0,0.0,0.0
1664548862223,0.34375,0.4892578,0.7421875,-15.3125,19.71875,1.3125,0.0,0.0,0.0
1664548862281,0.33007812,0.6308594,0.87597656,-1.59375,20.75,-5.4375,0.0,0.0,0.0
1664548862293,0.23339844,0.72753906,0.953125,-26.375,21.75,3.59375,0.0,0.0,0.0
1664548862318,0.28710938,0.73535156,0.72558594,-15.6875,8.84375,-2.59375,0.0,0.0,0.0
1664548862381,0.21484375,0.6015625,0.7314453,-17.09375,15.3125,-3.3125,0.0,0.0,0.0
1664548862455,0.3154297,0.6171875,0.7451172,-0.4375,10.4375,-18.8125,-34.375,-22.625,-76.25
1664548862458,0.46777344,0.58691406,0.640625,-24.65625,24.71875,-31.8125,0.0,0.0,0.0
1664548862538,0.3623047,0.6074219,0.75,-6.53125,23.5625,-36.9375,0.0,0.0,0.0
1664548862595,0.24023438,0.53125,0.9267578,-21.90625,37.65625,-53.0,0.0,0.0,0.0
1664548862653,0.28808594,0.7558594,1.0351562,-10.03125,-0.90625,-62.09375,0.0,0.0,0.0
1664548862716,0.25195312,1.1601562,1.0097656,-32.78125,-50.40625,-70.5625,0.0,0.0,0.0
1664548862738,0.2783203,0.7783203,0.5703125,-29.0625,-33.25,-65.5625,0.0,0.0,0.0
1664548862764,0.28515625,0.84375,0.66796875,15.125,-35.5,-53.53125,0.0,0.0,0.0
1664548862814,0.23144531,0.70410156,0.77734375,34.46875,-31.78125,-41.34375,0.0,0.0,0.0
1664548862819,0.14550781,0.8769531,0.5986328,12.6875,-50.90625,-25.28125,0.0,0.0,0.0
1664548862839,0.18066406,0.9394531,0.66308594,0.96875,-53.75,-19.125,0.0,0.0,0.0
1664548862888,0.17089844,0.6582031,0.5341797,-15.4375,-48.8125,-31.375,0.0,0.0,0.0
1664548862926,0.23339844,0.61328125,0.5722656,-22.34375,-21.65625,-38.46875,0.0,0.0,0.0
1664548862962,0.14550781,0.60546875,0.67578125,-17.65625,-20.5625,-43.09375,-35.6875,-26.9375,-70.875
1664548863023,0.07714844,0.66796875,0.7265625,-9.03125,-11.21875,-58.90625,0.0,0.0,0.0
1664548863048,0.23632812,0.5175781,0.8701172,-3.78125,14.71875,-78.4375,0.0,0.0,0.0
1664548863073,0.061523438,0.2890625,0.6767578,27.34375,-16.03125,-106.8125,0.0,0.0,0.0
1664548863151,0.18164062,0.734375,0.46289062,-31.375,-13.96875,-57.03125,0.0,0.0,0.0
1664548863178,-0.18652344,0.7558594,0.49414062,-72.9375,-30.21875,-55.5625,0.0,0.0,0.0
1664548863218,-0.16210938,0.31445312,0.6738281,-74.53125,-15.125,-59.53125,0.0,0.0,0.0
1664548863320,-0.5263672,0.48828125,0.61621094,-28.9375,-20.4375,-47.0,0.0,0.0,0.0
1664548863321,0.0029296875,0.6357422,0.71875,-31.6875,21.4375,-37.3125,0.0,0.0,0.0
1664548863346,-0.5996094,0.59472656,1.1835938,-4.28125,-5.4375,6.875,0.0,0.0,0.0
1664548863393,-0.3046875,0.7988281,1.2080078,-46.6875,0.75,13.40625,0.0,0.0,0.0
1664548863420,-0.25,0.3359375,1.1220703,-41.5625,-8.40625,-4.71875,0.0,0.0,0.0
1664548863462,0.038085938,0.5410156,0.8183594,-20.625,-2.3125,-5.75,-38.5625,-37.1875,-67.125
1664548863531,0.0625,0.54785156,0.86816406,-5.0625,-3.59375,-2.34375,0.0,0.0,0.0
1664548863562,0.016601562,0.5839844,0.8125,-7.34375,5.0625,-2.34375,0.0,0.0,0.0
1664548863608,0.076171875,0.5595703,0.8125,-12.21875,-6.21875,10.25,0.0,0.0,0.0
1664548863691,0.018554688,0.7373047,0.8330078,-12.40625,-23.96875,22.9375,0.0,0.0,0.0
1664548863693,-0.1015625,0.45214844,0.85253906,-11.25,-29.78125,18.34375,0.0,0.0,0.0
1664548863713,-0.048828125,0.5878906,0.90527344,8.78125,-35.09375,-3.375,0.0,0.0,0.0
1664548863759,-0.11425781,0.49902344,1.0957031,-10.125,-1.6875,-10.15625,0.0,0.0,0.0
1664548863763,0.0068359375,0.3623047,1.0097656,9.46875,-0.25,-36.5625,0.0,0.0,0.0
1664548863779,-0.13671875,0.3876953,0.88183594,20.0,9.21875,-40.78125,0.0,0.0,0.0
1664548863843,-0.037109375,0.3623047,0.859375,47.46875,-9.6875,-67.875,0.0,0.0,0.0
1664548863868,-0.123046875,0.14257812,0.68847656,43.28125,5.75,-76.0,0.0,0.0,0.0
1664548863884,9.765625E-4,0.36328125,0.5625,57.5625,5.125,-93.53125,0.0,0.0,0.0
1664548863942,0.048828125,0.3251953,0.6894531,40.59375,21.96875,-97.96875,-37.5,-34.625,-67.375
1664548863974,-0.1015625,0.3095703,0.609375,43.6875,28.8125,-102.6875,0.0,0.0,0.0
1664548864010,-0.28320312,0.3798828,0.6845703,42.65625,38.40625,-85.78125,0.0,0.0,0.0
1664548864067,-0.20996094,0.70703125,0.72265625,52.0625,41.6875,-80.8125,0.0,0.0,0.0
1664548864132,-0.34570312,0.84765625,0.87597656,33.0625,73.875,-76.5,0.0,0.0,0.0
1664548864149,-0.93066406,0.8300781,0.3955078,13.84375,64.03125,-70.3125,0.0,0.0,0.0
1664548864197,-0.6689453,0.8964844,0.73535156,35.21875,43.53125,-37.96875,0.0,0.0,0.0
1664548864214,-0.6660156,1.2226562,0.7158203,18.78125,15.15625,1.375,0.0,0.0,0.0
1664548864243,-0.8535156,0.71484375,0.54003906,-8.4375,2.625,12.25,0.0,0.0,0.0
1664548864323,-0.61621094,0.66503906,0.453125,-11.90625,-9.8125,11.875,0.0,0.0,0.0
1664548864351,-0.51660156,0.67089844,0.5390625,-16.71875,5.0625,0.84375,0.0,0.0,0.0
1664548864375,-0.6425781,0.8779297,0.5498047,-20.5,1.03125,-2.53125,0.0,0.0,0.0
1664548864432,-0.7421875,1.0664062,0.6699219,42.40625,-66.03125,-8.25,-55.375,-31.4375,-73.5625
1664548864469,-0.625,0.72265625,0.9628906,2.9375,-47.0625,-14.71875,0.0,0.0,0.0
1664548864490,-0.53222656,0.9326172,0.68847656,-2.75,-39.375,-9.15625,0.0,0.0,0.0
1664548864537,-0.7236328,0.49902344,0.7607422,-35.21875,4.40625,-26.5625,0.0,0.0,0.0
1664548864566,-0.578125,0.6015625,0.68359375,-5.6875,1.40625,-28.53125,0.0,0.0,0.0
1664548864599,-0.5419922,0.7392578,0.9433594,18.375,2.25,-30.03125,0.0,0.0,0.0
1664548864667,-0.5966797,0.7109375,0.8027344,34.65625,-19.09375,-16.6875,0.0,0.0,0.0
1664548864706,-0.31835938,0.5371094,0.75,54.25,-40.09375,2.84375,0.0,0.0,0.0
1664548864732,-0.29785156,0.41503906,0.42285156,64.875,-53.65625,20.6875,0.0,0.0,0.0
1664548864777,-0.22753906,0.55859375,0.30859375,34.1875,-28.4375,9.4375,0.0,0.0,0.0
1664548864823,-0.26757812,0.54785156,0.6298828,-4.59375,-10.96875,16.09375,0.0,0.0,0.0
1664548864874,-0.21777344,0.4033203,0.5439453,-25.15625,-4.6875,9.4375,0.0,0.0,0.0
1664548864970,-0.3720703,0.62402344,0.35058594,-15.6875,-11.59375,9.4375,0.0,0.0,0.0
1664548864973,0.026367188,0.5888672,0.45703125,-15.4375,-18.125,-8.3125,-43.1875,-28.3125,-71.125
1664548864982,-0.33789062,0.55566406,0.43847656,-35.59375,-33.375,-4.96875,0.0,0.0,0.0
1664548865026,-0.32226562,0.6435547,0.65234375,-28.5,-46.0625,11.75,0.0,0.0,0.0
1664548865047,-0.35058594,0.71777344,0.5878906,2.125,-69.03125,14.75,0.0,0.0,0.0
1664548865084,-0.32617188,0.95410156,0.7841797,-26.0,-66.15625,14.5,0.0,0.0,0.0
1664548865155,-0.38378906,0.5957031,0.83203125,-16.53125,-54.0,-2.21875,0.0,0.0,0.0
1664548865171,-0.21191406,0.9873047,0.84277344,-12.28125,-64.875,3.90625,0.0,0.0,0.0
1664548865197,-0.23828125,0.7246094,0.8769531,-47.75,-60.1875,10.40625,0.0,0.0,0.0
1664548865259,-0.09765625,0.59375,0.9277344,-27.78125,-44.5625,5.84375,0.0,0.0,0.0
1664548865286,0.018554688,0.45117188,0.8388672,-36.1875,1.40625,-11.375,0.0,0.0,0.0
1664548865323,-0.12988281,0.3486328,1.0820312,-33.9375,24.59375,-13.9375,0.0,0.0,0.0
1664548865421,-0.10253906,0.4501953,1.046875,-30.03125,36.75,-23.75,0.0,0.0,0.0
1664548865439,-0.32910156,0.34765625,1.0439453,-25.53125,24.125,-10.5,-29.25,-39.6875,-62.125
1664548865471,-0.29492188,0.18457031,0.9902344,-5.625,20.8125,-18.375,0.0,0.0,0.0
1664548865511,-0.3095703,0.28710938,0.7763672,-21.90625,67.5,-26.125,0.0,0.0,0.0
1664548865531,-0.48242188,0.35058594,1.0576172,-37.125,69.34375,-34.375,0.0,0.0,0.0
1664548865559,-0.5488281,0.3857422,0.9658203,-23.75,55.375,-20.875,0.0,0.0,0.0
1664548865617,-0.24609375,0.37890625,0.7607422,-25.75,57.375,-22.65625,0.0,0.0,0.0
1664548865650,-0.47753906,0.19335938,0.8330078,-35.03125,79.09375,-23.15625,0.0,0.0,0.0
1664548865690,-0.4736328,0.36523438,0.96972656,-25.09375,85.875,-22.21875,0.0,0.0,0.0
1664548865745,-0.3515625,0.04296875,0.6435547,-20.5,95.09375,-4.53125,0.0,0.0,0.0
1664548865779,-0.41601562,0.0087890625,0.5917969,1.03125,124.75,-10.4375,0.0,0.0,0.0
1664548865824,-0.91796875,0.5292969,0.8769531,14.875,107.375,2.125,0.0,0.0,0.0
1664548865909,-0.87109375,0.37597656,0.7392578,-8.0,96.125,3.03125,0.0,0.0,0.0
1664548865910,-0.57128906,0.053710938,0.38183594,-10.125,106.15625,-8.4375,0.0,0.0,0.0
1664548865934,-0.53027344,0.2109375,0.28808594,13.0,127.4375,2.375,-64.375,-45.125,-77.125
1664548865987,-1.1865234,0.5449219,0.68359375,31.0,106.21875,29.40625,0.0,0.0,0.0
1664548866016,-0.8828125,0.546875,0.76171875,0.25,31.375,41.78125,0.0,0.0,0.0
1664548866063,-0.4111328,0.29492188,0.6621094,-17.40625,-47.0,59.875,0.0,0.0,0.0
1664548866136,-0.14453125,0.1015625,0.33007812,-17.65625,-88.96875,69.625,0.0,0.0,0.0
1664548866172,-0.671875,0.1796875,0.3857422,-19.40625,-24.96875,38.1875,0.0,0.0,0.0
1664548866202,-0.56347656,0.5029297,0.16699219,-31.5625,62.875,20.125,0.0,0.0,0.0
1664548866246,-0.36914062,0.3828125,0.12988281,-37.90625,154.0,29.71875,0.0,0.0,0.0
1664548866266,-1.3222656,0.62109375,0.25585938,-8.0,173.15625,31.90625,0.0,0.0,0.0
1664548866281,-1.765625,0.75390625,0.46777344,13.40625,149.3125,-7.21875,0.0,0.0,0.0
1664548866345,-0.70996094,0.5019531,0.390625,-66.59375,141.78125,-32.1875,0.0,0.0,0.0
1664548866386,-0.7792969,0.42382812,0.24902344,-61.03125,80.09375,20.0,0.0,0.0,0.0
1664548866416,-0.55859375,0.41601562,-0.14648438,-8.5625,54.375,61.3125,-81.0,-40.75,-99.9375
1664548866481,-1.1328125,0.0,-0.109375,-21.625,100.40625,2.90625,0.0,0.0,0.0
1664548866524,-0.63964844,0.4501953,0.044921875,-29.59375,121.28125,-41.03125,0.0,0.0,0.0
1664548866539,-0.7050781,0.56640625,-0.115234375,26.125,40.84375,10.53125,0.0,0.0,0.0
1664548866597,-1.2353516,0.52441406,-0.021484375,-28.375,31.0625,2.84375,0.0,0.0,0.0
1664548866607,-1.0185547,0.3935547,-0.21777344,-28.625,29.1875,-13.4375,0.0,0.0,0.0
1664548866644,-0.96972656,0.4404297,-0.1640625,9.625,-0.96875,-1.0,0.0,0.0,0.0
1664548866707,-0.92089844,0.5546875,-0.056640625,-0.90625,-1.40625,-14.0625,0.0,0.0,0.0
1664548866727,-0.9326172,0.45703125,-0.18359375,-18.5,0.9375,-15.59375,0.0,0.0,0.0
1664548866772,-0.69921875,0.44140625,-0.21191406,-15.15625,-6.09375,-11.625,0.0,0.0,0.0
1664548866831,-0.7685547,0.38964844,-0.18847656,-1.03125,-19.09375,3.34375,0.0,0.0,0.0
1664548866859,-0.9355469,0.22753906,-0.09765625,-4.15625,-5.59375,-0.6875,0.0,0.0,0.0
1664548866877,-1.0761719,0.3388672,-0.08300781,-2.9375,-8.40625,-3.3125,0.0,0.0,0.0
1664548866946,-1.0400391,0.4404297,0.0390625,-43.78125,4.65625,-1.0,-79.1875,-41.1875,-110.625
1664548866968,-1.1191406,0.44726562,-0.12109375,-68.125,28.9375,-11.5625,0.0,0.0,0.0
1664548867017,-0.8105469,0.28808594,-0.01171875,-49.875,34.6875,-7.28125,0.0,0.0,0.0
1664548867066,-0.8515625,0.31835938,-0.001953125,-21.6875,28.4375,-0.875,0.0,0.0,0.0
1664548867108,-0.9199219,0.36621094,-0.022460938,-13.4375,27.71875,-1.0,0.0,0.0,0.0
1664548867141,-0.93359375,0.22363281,0.048828125,-26.5,-7.375,-1.65625,0.0,0.0,0.0
1664548867205,-1.1972656,0.11035156,-0.11328125,-22.46875,-9.09375,-2.09375,0.0,0.0,0.0
1664548867227,-1.1191406,0.39941406,-0.18066406,-0.125,-22.15625,0.40625,0.0,0.0,0.0
1664548867253,-0.83496094,0.7597656,-0.0703125,-8.0,-39.0625,0.09375,0.0,0.0,0.0
1664548867315,-0.69140625,0.53808594,0.033203125,-33.8125,-12.75,9.09375,0.0,0.0,0.0
1664548867342,-1.0546875,0.24609375,-0.091796875,-60.25,8.78125,19.5625,0.0,0.0,0.0
1664548867366,-0.9609375,0.34960938,0.038085938,-45.1875,-0.96875,11.875,0.0,0.0,0.0
1664548867432,-0.875,0.4326172,0.12402344,-41.625,-14.9375,3.28125,-80.6875,-41.5,-108.8125
1664548867467,-1.0,0.31152344,0.048828125,-52.75,-27.53125,7.1875,0.0,0.0,0.0
1664548867487,-0.9951172,0.32421875,0.13476562,-34.4375,-43.6875,-0.625,0.0,0.0,0.0
1664548867550,-0.8466797,0.40527344,0.16601562,-32.34375,-46.4375,0.84375,0.0,0.0,0.0
1664548867581,-0.9560547,0.3564453,0.17675781,-31.125,-44.71875,0.46875,0.0,0.0,0.0
1664548867616,-0.9082031,0.3828125,0.23632812,-24.53125,-52.25,0.40625,0.0,0.0,0.0
1664548867679,-0.8330078,0.42285156,0.2705078,-25.46875,-52.375,4.875,0.0,0.0,0.0
1664548867700,-0.8544922,0.43652344,0.30566406,-33.9375,-45.71875,3.78125,0.0,0.0,0.0
1664548867719,-0.8847656,0.4873047,0.25390625,-33.15625,-53.59375,1.21875,0.0,0.0,0.0
1664548867801,-0.7402344,0.39257812,0.3046875,-29.25,-84.40625,18.1875,0.0,0.0,0.0
1664548867840,-0.5527344,0.37597656,0.38867188,-57.125,-81.96875,31.71875,0.0,0.0,0.0
1664548867859,-0.5703125,0.36523438,0.3984375,-77.59375,-83.25,39.34375,0.0,0.0,0.0
1664548867902,-0.7128906,0.2578125,0.5205078,-73.625,-86.46875,34.40625,0.0,0.0,0.0
1664548867972,-0.78027344,0.05078125,0.46289062,-81.125,-111.875,29.65625,-71.25,-46.3125,-83.125
1664548868006,-0.5566406,0.041992188,0.4892578,-72.46875,-91.90625,28.5,0.0,0.0,0.0
1664548868046,-0.49609375,0.27929688,0.5527344,-55.84375,-68.71875,10.65625,0.0,0.0,0.0
1664548868091,-0.59765625,0.140625,0.44140625,-47.75,-53.75,28.375,0.0,0.0,0.0
1664548868108,-0.53515625,0.35351562,0.77734375,-34.3125,-82.28125,57.65625,0.0,0.0,0.0
1664548868175,-0.83691406,0.038085938,0.796875,-41.15625,-80.9375,47.53125,0.0,0.0,0.0
1664548868177,-0.17285156,0.34765625,0.77734375,34.84375,-164.0,62.375,0.0,0.0,0.0
1664548868214,-0.16113281,0.23535156,0.8125,35.40625,-135.625,79.8125,0.0,0.0,0.0
1664548868271,-0.2783203,0.29492188,0.80566406,30.375,-146.78125,72.96875,0.0,0.0,0.0
1664548868300,0.1328125,0.33496094,0.6582031,47.59375,-168.28125,73.21875,0.0,0.0,0.0
1664548868335,0.0078125,0.20800781,0.6171875,33.3125,-146.84375,92.9375,0.0,0.0,0.0
1664548868398,0.140625,0.17285156,0.5058594,64.6875,-110.59375,83.3125,0.0,0.0,0.0
1664548868430,-0.10449219,0.19140625,0.2890625,98.8125,-125.34375,74.8125,-27.625,-39.25,-66.0625
1664548868457,0.65722656,0.5205078,0.6689453,-7.09375,-131.15625,140.5,0.0,0.0,0.0
1664548868517,1.4560547,1.4248047,1.5185547,-101.5625,-94.0,186.25,0.0,0.0,0.0
1664548868541,2.0136719,-0.1328125,1.9931641,-3.0625,58.71875,-23.9375,0.0,0.0,0.0
1664548868566,0.7607422,0.13769531,1.5361328,113.21875,76.46875,-51.34375,0.0,0.0,0.0
1664548868624,0.8623047,0.29589844,0.2939453,176.1875,-16.15625,-12.28125,0.0,0.0,0.0
1664548868667,-0.28222656,-0.1484375,0.8798828,68.0,26.9375,4.375,0.0,0.0,0.0
1664548868706,-0.0126953125,0.4609375,-0.015625,93.375,-19.09375,17.5,0.0,0.0,0.0
1664548868761,0.9238281,0.5644531,0.7607422,22.21875,-44.375,-0.875,0.0,0.0,0.0
1664548868802,1.8378906,0.48046875,0.7548828,-17.09375,13.625,-69.53125,0.0,0.0,0.0
1664548868820,1.1083984,-0.076171875,0.5234375,91.3125,12.65625,-84.84375,0.0,0.0,0.0
1664548868886,0.3984375,0.2890625,0.2890625,123.90625,71.53125,-68.4375,0.0,0.0,0.0
1664548868934,-0.068359375,0.74902344,0.091796875,55.46875,131.46875,-85.15625,0.0,0.0,0.0
1664548868977,-0.060546875,1.5283203,0.15234375,141.28125,38.21875,-28.8125,-35.25,-17.5,-77.125
1664548869048,0.42773438,0.83496094,0.4423828,121.46875,-20.75,26.09375,0.0,0.0,0.0
1664548869082,0.5488281,0.90234375,0.40625,-36.03125,46.53125,20.125,0.0,0.0,0.0
1664548869120,0.32617188,0.7138672,0.47070312,-12.625,30.65625,-4.15625,0.0,0.0,0.0
1664548869169,0.2998047,0.6435547,0.38867188,25.625,-23.96875,-15.9375,0.0,0.0,0.0
1664548869193,0.33789062,0.90722656,0.5654297,18.71875,-48.21875,-22.28125,0.0,0.0,0.0
1664548869213,0.42285156,1.0498047,0.14941406,3.90625,-42.84375,-10.5625,0.0,0.0,0.0
1664548869272,0.33691406,1.0527344,0.35839844,-31.3125,-32.15625,-7.34375,0.0,0.0,0.0
1664548869316,0.2763672,1.0009766,0.15625,-47.625,-31.375,11.21875,0.0,0.0,0.0
1664548869348,0.25097656,0.7910156,0.3095703,-86.1875,-18.5625,11.75,0.0,0.0,0.0
1664548869411,0.29882812,0.7597656,0.41992188,-80.03125,-9.5625,-6.96875,0.0,0.0,0.0
1664548869442,0.38085938,0.8027344,0.5332031,-58.125,-10.375,-13.875,0.0,0.0,0.0
1664548869468,0.37695312,0.96875,0.56152344,-49.875,-19.84375,-22.34375,-33.75,-18.25,-75.8125
1664548869536,0.25585938,0.6669922,0.78125,-48.53125,-10.6875,-4.78125,0.0,0.0,0.0
1664548869569,0.38964844,0.6777344,0.734375,-45.46875,-8.15625,-1.34375,0.0,0.0,0.0
1664548869595,0.35839844,0.54003906,0.71875,-47.375,3.78125,-9.15625,0.0,0.0,0.0
1664548869649,0.21484375,0.6464844,0.87402344,-33.625,-1.09375,-19.90625,0.0,0.0,0.0
1664548869673,0.3203125,0.5683594,0.70996094,-36.25,-10.1875,-6.5,0.0,0.0,0.0
1664548869719,0.4091797,0.63964844,0.70410156,-40.15625,-4.875,-3.25,0.0,0.0,0.0
1664548869746,0.3359375,0.3876953,0.9345703,-22.84375,7.09375,0.65625,0.0,0.0,0.0
1664548869770,0.21875,0.6484375,0.80859375,-18.9375,-4.21875,-6.375,0.0,0.0,0.0
1664548869790,0.31445312,0.49414062,0.8769531,-24.25,2.5,-24.625,0.0,0.0,0.0
1664548869823,0.36621094,0.47265625,0.84472656,-26.375,-5.71875,-34.8125,0.0,0.0,0.0
1664548869853,0.4423828,0.40820312,0.98535156,-11.1875,-10.4375,-42.9375,0.0,0.0,0.0
1664548869883,0.19628906,0.60058594,0.86035156,-12.46875,3.125,-56.15625,0.0,0.0,0.0
1664548869944,0.41796875,0.5332031,0.80371094,-1.21875,-3.78125,-53.59375,-34.8125,-29.5,-69.375
1664548869972,0.48046875,0.5654297,0.8847656,24.59375,14.15625,-35.90625,0.0,0.0,0.0
1664548870001,0.16894531,0.64746094,0.7216797,24.90625,26.375,-23.875,0.0,0.0,0.0
1664548870062,0.28515625,0.66503906,0.80371094,72.375,15.21875,-35.34375,0.0,0.0,0.0
1664548870091,0.32910156,0.5966797,0.7675781,72.4375,21.5625,-20.9375,0.0,0.0,0.0
1664548870119,0.21679688,0.87109375,0.53222656,91.5,30.09375,-21.25,0.0,0.0,0.0
1664548870178,0.22265625,1.1699219,0.72753906,76.28125,38.875,-28.9375,0.0,0.0,0.0
1664548870206,0.01953125,1.1523438,0.48046875,75.875,45.84375,-39.5625,0.0,0.0,0.0
1664548870237,-0.1484375,1.0253906,0.38085938,71.15625,30.78125,-47.3125,0.0,0.0,0.0
1664548870303,-0.18359375,0.8535156,0.49023438,68.84375,43.71875,-53.59375,0.0,0.0,0.0
1664548870332,-0.32714844,0.9160156,0.36914062,103.09375,39.9375,-54.875,0.0,0.0,0.0
1664548870360,-0.37304688,0.8105469,0.25195312,106.875,50.96875,-48.53125,0.0,0.0,0.0
1664548870453,-0.43359375,0.7529297,0.18261719,112.53125,53.15625,-50.1875,-50.5625,-12.25,-86.3125
1664548870456,-0.43066406,0.9560547,0.3232422,120.40625,32.28125,-55.375,0.0,0.0,0.0
1664548870478,-0.4375,0.92285156,0.19726562,99.96875,9.28125,-46.09375,0.0,0.0,0.0
1664548870542,-0.24707031,0.79296875,-0.005859375,129.8125,-13.78125,-30.03125,0.0,0.0,0.0
1664548870575,-0.11328125,0.8769531,-0.15820312,130.0,-28.6875,-15.03125,0.0,0.0,0.0
1664548870598,-0.038085938,0.82714844,0.046875,141.0,-40.75,-10.15625,0.0,0.0,0.0
1664548870661,-0.2421875,0.7636719,0.044921875,93.25,-58.65625,-4.65625,0.0,0.0,0.0
1664548870700,-0.1171875,0.6484375,0.11621094,58.28125,-81.78125,-15.53125,0.0,0.0,0.0
1664548870723,-0.11230469,0.3173828,-0.12890625,0.25,-71.71875,-18.625,0.0,0.0,0.0
1664548870781,-0.24121094,0.703125,-0.056640625,-1.84375,-76.65625,-38.65625,0.0,0.0,0.0
1664548870809,-0.21191406,0.8046875,-0.23535156,-17.15625,-74.5625,-7.9375,0.0,0.0,0.0
1664548870839,-0.4970703,1.2050781,-0.10546875,-63.0625,-57.625,-12.09375,0.0,0.0,0.0
1664548870902,-0.70703125,1.4287109,-0.15136719,-71.125,-68.21875,-34.9375,0.0,0.0,0.0
1664548870931,-0.7626953,1.1132812,-0.10253906,-53.46875,-95.6875,-54.28125,-57.75,-12.6875,-99.5
1664548870959,-0.6611328,1.1035156,0.034179688,-38.875,-122.96875,-62.28125,0.0,0.0,0.0
1664548871020,-0.29101562,0.9765625,-0.017578125,-26.0625,-100.875,-33.84375,0.0,0.0,0.0
1664548871049,-0.7753906,0.93847656,0.036132812,-62.125,-100.875,-25.96875,0.0,0.0,0.0
1664548871081,-0.2607422,0.7636719,0.38867188,-35.65625,-99.25,-38.40625,0.0,0.0,0.0
1664548871140,-0.3935547,1.0449219,0.19238281,-50.125,-103.8125,10.71875,0.0,0.0,0.0
1664548871170,-0.48242188,0.5859375,0.57128906,-75.125,-64.6875,9.375,0.0,0.0,0.0
1664548871198,-0.5654297,0.71875,0.40429688,-21.3125,-45.71875,-0.375,0.0,0.0,0.0
1664548871262,-0.390625,0.5800781,0.53027344,-3.0,-24.03125,-3.625,0.0,0.0,0.0
1664548871291,-0.4638672,0.78222656,0.39453125,-39.5,-4.25,-8.4375,0.0,0.0,0.0
1664548871319,-0.51171875,0.76171875,0.5732422,-32.40625,-27.40625,-17.84375,0.0,0.0,0.0
1664548871383,-0.33789062,0.8251953,0.59472656,-7.625,-40.28125,-4.03125,0.0,0.0,0.0
1664548871414,-0.39746094,0.7158203,0.34472656,-22.53125,-31.1875,10.40625,-46.9375,-24.5625,-75.0625
1664548871444,-0.49023438,0.8095703,0.42871094,-24.90625,-55.09375,12.5625,0.0,0.0,0.0
1664548871498,-0.43652344,0.9296875,0.45410156,-45.0,-55.03125,4.125,0.0,0.0,0.0
1664548871531,-0.42871094,0.6904297,0.40039062,-41.15625,-49.84375,3.71875,0.0,0.0,0.0
1664548871557,-0.43652344,0.8359375,0.5996094,-40.21875,-52.3125,14.375,0.0,0.0,0.0
1664548871620,-0.4951172,0.9580078,0.5527344,-46.28125,-97.15625,29.90625,0.0,0.0,0.0
1664548871651,-0.48242188,0.6933594,0.8642578,-73.25,-91.96875,35.5,0.0,0.0,0.0
1664548871682,-0.43652344,0.8251953,0.71972656,-71.59375,-96.84375,27.875,0.0,0.0,0.0
1664548871741,-0.25976562,0.7363281,0.96484375,-93.625,-86.125,28.96875,0.0,0.0,0.0
1664548871771,-0.24414062,0.44628906,1.2070312,-112.6875,-73.84375,28.375,0.0,0.0,0.0
1664548871800,0.028320312,0.5253906,1.1894531,-112.0625,-43.4375,-28.75,0.0,0.0,0.0
1664548871859,0.111328125,0.5605469,1.2607422,-82.34375,-5.375,-23.6875,0.0,0.0,0.0
1664548871891,0.19726562,0.61621094,1.4238281,-83.625,20.15625,-9.125,0.0,0.0,0.0
1664548871920,0.46777344,-0.0146484375,0.9189453,-87.15625,54.9375,-4.71875,-21.3125,-49.3125,-63.5
1664548871981,0.16601562,-0.048828125,0.671875,-41.3125,32.46875,8.28125,0.0,0.0,0.0
1664548872010,0.21679688,0.041015625,0.7167969,28.4375,27.71875,9.625,0.0,0.0,0.0
1664548872040,0.24316406,0.13183594,0.92578125,34.84375,77.28125,-13.1875,0.0,0.0,0.0
1664548872104,0.032226562,0.19628906,0.9824219,41.6875,84.46875,-4.78125,0.0,0.0,0.0
1664548872130,-0.16015625,0.3310547,1.0556641,24.59375,50.375,13.40625,0.0,0.0,0.0
1664548872158,-0.18945312,0.3173828,0.7949219,31.65625,54.09375,17.6875,0.0,0.0,0.0
1664548872222,-0.16210938,0.2861328,0.7529297,31.5625,62.5625,21.96875,0.0,0.0,0.0
1664548872251,-0.31835938,0.30371094,0.9248047,30.03125,70.4375,18.59375,0.0,0.0,0.0
1664548872280,-0.31347656,0.22558594,0.8642578,26.90625,61.09375,11.71875,0.0,0.0,0.0
1664548872342,-0.41308594,0.27539062,0.8808594,17.03125,78.9375,-15.28125,0.0,0.0,0.0
1664548872371,-0.43359375,0.27539062,0.86621094,2.875,92.40625,-34.5,0.0,0.0,0.0
1664548872398,-0.4501953,0.36621094,0.7285156,-0.5,77.71875,-26.0625,-46.375,-42.125,-66.375
1664548872460,-0.3017578,0.2734375,0.59375,-17.9375,105.78125,-11.6875,0.0,0.0,0.0
1664548872489,-0.41015625,0.24707031,0.5439453,-30.21875,126.59375,3.40625,0.0,0.0,0.0
1664548872521,-0.85839844,0.2998047,0.6816406,-18.0625,120.625,10.59375,0.0,0.0,0.0
1664548872582,-0.86035156,0.24511719,0.7060547,-8.71875,107.0,-7.03125,0.0,0.0,0.0
1664548872609,-0.7216797,0.19140625,0.44921875,-11.53125,105.40625,-11.1875,0.0,0.0,0.0
1664548872638,-0.73535156,0.19238281,0.5722656,3.34375,87.15625,-11.84375,0.0,0.0,0.0
1664548872728,-0.55078125,0.1015625,0.37597656,8.1875,110.59375,-27.96875,0.0,0.0,0.0
1664548872732,-0.76660156,0.029296875,0.22070312,-18.3125,144.53125,-41.15625,0.0,0.0,0.0
1664548872757,-0.7841797,0.40625,0.16894531,-4.78125,127.4375,2.59375,0.0,0.0,0.0
1664548872821,-1.1298828,0.52734375,0.5253906,11.40625,87.34375,37.28125,0.0,0.0,0.0
1664548872857,-0.9394531,0.21582031,0.26953125,-14.53125,66.90625,32.46875,0.0,0.0,0.0
1664548872879,-0.8886719,0.07324219,-0.005859375,-39.96875,109.3125,-6.1875,0.0,0.0,0.0
1664548872941,-0.93652344,0.3095703,0.21972656,-26.9375,114.3125,4.3125,-78.0,-44.5,-99.5
1664548872970,-0.8330078,0.5488281,0.31933594,22.46875,64.21875,13.21875,0.0,0.0,0.0
1664548872998,-1.0283203,0.37597656,-0.08105469,-13.375,34.0,32.8125,0.0,0.0,0.0
1664548873058,-1.3896484,0.10253906,-0.30566406,-14.84375,-7.5,19.03125,0.0,0.0,0.0
1664548873089,-0.77246094,0.6376953,-0.10839844,-3.0625,5.3125,-1.34375,0.0,0.0,0.0
1664548873118,-0.68652344,0.5703125,-0.049804688,-18.0625,8.375,1.375,0.0,0.0,0.0
1664548873179,-0.93359375,0.5058594,-0.16894531,-28.21875,3.375,4.6875,0.0,0.0,0.0
1664548873211,-0.85546875,0.32128906,-0.109375,-35.34375,23.5,-2.59375,0.0,0.0,0.0
1664548873239,-1.0058594,0.4111328,-0.055664062,-31.3125,8.375,-3.125,0.0,0.0,0.0
1664548873302,-1.109375,0.38085938,-0.0068359375,-2.625,-13.0625,-10.34375,0.0,0.0,0.0
1664548873332,-1.0283203,0.4560547,0.06640625,-2.25,-51.25,-14.40625,0.0,0.0,0.0
1664548873358,-1.0107422,0.4189453,0.049804688,-25.65625,-62.25,-15.28125,0.0,0.0,0.0
1664548873419,-0.9873047,0.3232422,0.10546875,-40.09375,-64.03125,-20.46875,-81.0,-46.75,-102.0625
1664548873451,-0.8466797,0.3515625,0.20800781,-41.75,-85.4375,-7.78125,0.0,0.0,0.0
1664548873477,-0.67089844,0.24902344,0.21582031,-0.75,-113.53125,31.0625,0.0,0.0,0.0
1664548873541,-0.5917969,0.3720703,0.21582031,-13.25,-93.875,47.28125,0.0,0.0,0.0
1664548873571,-0.6855469,0.59765625,0.23144531,-35.46875,-33.25,46.6875,0.0,0.0,0.0
1664548873598,-0.6298828,0.35058594,0.22363281,-32.34375,32.65625,41.0625,0.0,0.0,0.0
1664548873658,-0.8173828,0.19921875,0.21289062,-37.65625,94.625,9.4375,0.0,0.0,0.0
1664548873691,-0.5595703,0.6953125,-0.296875,-84.34375,177.25,-5.9375,0.0,0.0,0.0
1664548873719,-0.86621094,0.375,0.21289062,-53.21875,101.21875,25.3125,0.0,0.0,0.0
1664548873782,-1.3261719,0.24609375,-0.0546875,-34.5625,110.1875,6.03125,0.0,0.0,0.0
1664548873810,-1.3896484,-0.0703125,-0.11035156,-42.84375,99.0,-34.875,0.0,0.0,0.0
1664548873838,-1.3681641,0.5527344,0.30566406,14.59375,27.28125,-1.53125,0.0,0.0,0.0
1664548873901,-1.3105469,0.32714844,0.16113281,-48.03125,11.90625,-8.4375,0.0,0.0,0.0
1664548873931,-0.89746094,0.4375,0.020507812,-60.5,2.15625,-17.09375,-80.125,-45.5625,-110.4375
1664548873960,-0.6347656,0.33496094,0.041992188,-76.90625,22.28125,5.125,0.0,0.0,0.0
1664548874023,-0.8720703,0.15917969,-0.0625,-54.5,43.34375,21.09375,0.0,0.0,0.0
1664548874056,-1.1308594,-0.041015625,-0.14453125,30.21875,40.53125,20.5625,0.0,0.0,0.0
1664548874081,-1.0126953,0.36523438,0.024414062,47.40625,7.9375,21.15625,0.0,0.0,0.0
1664548874141,-1.2519531,0.5449219,-0.13769531,1.6875,-7.8125,20.90625,0.0,0.0,0.0
1664548874173,-0.96972656,0.6376953,-0.01953125,-5.8125,-23.1875,1.8125,0.0,0.0,0.0
1664548874200,-0.75097656,0.46972656,-0.03515625,-39.25,-21.65625,-1.25,0.0,0.0,0.0
1664548874260,-0.8417969,0.20214844,-0.08300781,-39.8125,-26.0625,10.90625,0.0,0.0,0.0
1664548874289,-0.9560547,0.29101562,0.001953125,0.46875,-51.09375,8.84375,0.0,0.0,0.0
1664548874320,-0.82714844,0.27929688,0.15234375,5.78125,-60.65625,-0.5,0.0,0.0,0.0
1664548874385,-0.8701172,0.36328125,0.11621094,-0.5625,-86.78125,-3.4375,0.0,0.0,0.0
1664548874408,-0.98046875,0.39941406,0.22167969,-23.5625,-98.8125,-2.6875,-80.125,-41.6875,-104.3125
1664548874440,-0.91308594,0.35742188,0.22460938,-35.96875,-126.15625,-6.5,0.0,0.0,0.0
1664548874502,-0.6591797,0.19335938,0.10644531,-36.3125,-126.8125,3.71875,0.0,0.0,0.0
1664548874529,-0.8125,0.32714844,0.18359375,-31.1875,-103.5625,13.21875,0.0,0.0,0.0
1664548874559,-0.7861328,0.26464844,0.24707031,-28.5625,-103.8125,12.1875,0.0,0.0,0.0
1664548874621,-0.5566406,0.15722656,0.3408203,-34.0,-99.0625,24.53125,0.0,0.0,0.0
1664548874651,-0.62597656,0.17089844,0.39453125,-47.96875,-93.875,26.28125,0.0,0.0,0.0
1664548874679,-0.6855469,0.17578125,0.6738281,-21.375,-102.03125,21.96875,0.0,0.0,0.0
1664548874742,-0.49023438,0.2685547,0.001953125,10.6875,-122.5,38.5625,0.0,0.0,0.0
1664548874773,-0.5703125,0.23730469,0.5566406,61.8125,-166.6875,90.6875,0.0,0.0,0.0
1664548874801,-0.7705078,0.66796875,0.49023438,70.71875,-193.15625,110.03125,0.0,0.0,0.0
1664548874859,-0.3515625,0.3798828,0.34472656,42.46875,-180.40625,94.46875,0.0,0.0,0.0
1664548874891,-0.026367188,0.026367188,0.6591797,62.5625,-118.28125,73.46875,0.0,0.0,0.0
1664548874919,0.3359375,0.34375,0.8017578,79.59375,-94.21875,75.59375,-36.125,-32.5,-66.0625
1664548875013,-0.040039062,0.8769531,0.38378906,44.4375,-79.59375,93.1875,0.0,0.0,0.0
1664548875017,0.19140625,0.90527344,0.8017578,24.28125,-116.375,93.3125,0.0,0.0,0.0
1664548875038,0.37109375,0.9453125,0.96875,-125.90625,-97.09375,110.75,0.0,0.0,0.0
1664548875101,0.22558594,0.42285156,0.9746094,-94.1875,-84.78125,82.875,0.0,0.0,0.0
1664548875132,0.89941406,-0.24804688,0.9345703,50.53125,-40.59375,93.78125,0.0,0.0,0.0
1664548875158,1.6806641,0.45703125,1.4873047,129.3125,6.96875,35.25,0.0,0.0,0.0
1664548875222,1.9453125,0.99121094,1.4609375,109.1875,65.625,-47.0625,0.0,0.0,0.0
1664548875248,0.32226562,0.90527344,0.7939453,145.5,41.21875,-30.34375,0.0,0.0,0.0
1664548875278,-0.115234375,0.59472656,0.47753906,44.25,93.15625,-44.5625,0.0,0.0,0.0
1664548875341,-0.10449219,-0.072265625,0.390625,184.8125,64.59375,-17.78125,0.0,0.0,0.0
1664548875372,0.49902344,1.0800781,-0.33398438,67.25,53.84375,-35.71875,0.0,0.0,0.0
1664548875398,0.9550781,1.2460938,0.69433594,183.65625,78.1875,-85.53125,-35.5625,-15.4375,-78.8125
1664548875548,0.796875,1.1523438,0.79785156,43.15625,118.40625,-5.375,0.0,0.0,0.0
1664548875600,0.29296875,0.3935547,-0.043945312,45.90625,137.9375,1.03125,0.0,0.0,0.0
1664548875651,0.1875,1.6503906,0.103515625,84.03125,111.875,4.25,0.0,0.0,0.0
1664548875681,0.018554688,1.4121094,0.11425781,90.03125,75.5,15.3125,0.0,0.0,0.0
1664548875694,0.0146484375,0.65722656,0.10058594,28.6875,16.78125,39.09375,0.0,0.0,0.0
1664548875727,0.15917969,0.6796875,0.048828125,10.4375,-6.28125,22.5625,0.0,0.0,0.0
1664548875800,0.21191406,0.890625,0.08886719,20.5625,-29.90625,-4.28125,0.0,0.0,0.0
1664548875817,0.028320312,1.0087891,0.1328125,10.75,-23.1875,-22.0625,0.0,0.0,0.0
1664548875839,0.09472656,0.99609375,0.055664062,-12.46875,-31.3125,-29.5625,0.0,0.0,0.0
1664548875909,0.19140625,1.1875,0.28710938,-26.9375,-50.96875,-25.40625,0.0,0.0,0.0
1664548875935,0.20214844,1.1757812,0.22167969,-56.40625,-47.78125,-19.84375,0.0,0.0,0.0
1664548875960,0.0,1.0244141,0.1796875,-57.375,-56.34375,-23.75,0.0,0.0,0.0
1664548876001,0.0703125,1.1484375,0.16308594,-58.21875,-67.0625,-24.84375,-44.875,-8.6875,-90.5
1664548876047,0.12890625,0.98046875,0.27929688,-49.6875,-92.78125,-25.96875,0.0,0.0,0.0
1664548876068,0.203125,0.99902344,0.30664062,-67.28125,-75.25,-21.375,0.0,0.0,0.0
1664548876127,0.18261719,0.90234375,0.23242188,-55.84375,-44.5625,-22.59375,0.0,0.0,0.0
1664548876143,0.24121094,0.9433594,0.2998047,-54.625,-29.46875,-13.03125,0.0,0.0,0.0
1664548876182,0.33398438,0.98046875,0.49609375,-32.15625,-21.28125,-7.46875,0.0,0.0,0.0
1664548876244,0.29785156,0.9199219,0.42285156,-24.25,7.75,-12.21875,0.0,0.0,0.0
1664548876262,0.2626953,0.84277344,0.5996094,-24.78125,26.4375,-3.625,0.0,0.0,0.0
1664548876303,0.2939453,0.921875,0.5996094,-2.375,41.5625,5.0625,0.0,0.0,0.0
1664548876353,0.13378906,0.6845703,0.49414062,-4.65625,38.21875,7.125,0.0,0.0,0.0
1664548876377,-0.31835938,0.60058594,0.91015625,6.40625,14.65625,-26.3125,0.0,0.0,0.0
1664548876406,0.076171875,0.79003906,0.85253906,-5.6875,-3.59375,-30.09375,0.0,0.0,0.0
1664548876462,0.15039062,0.9199219,0.68652344,28.625,-32.40625,-26.8125,-43.9375,-16.625,-78.375
1664548876508,0.059570312,0.5761719,0.58691406,-5.0625,-22.625,-58.78125,0.0,0.0,0.0
1664548876547,0.14941406,0.5830078,0.5107422,12.1875,-12.6875,-85.59375,0.0,0.0,0.0
1664548876610,0.03125,0.74316406,0.47558594,31.125,-2.75,-100.1875,0.0,0.0,0.0
1664548876628,-0.103515625,0.8154297,0.48339844,50.84375,9.90625,-116.59375,0.0,0.0,0.0
1664548876652,-0.2919922,0.63671875,0.5566406,43.875,4.84375,-109.5,0.0,0.0,0.0
1664548876724,-0.45214844,0.7373047,0.38867188,30.5625,9.59375,-100.46875,0.0,0.0,0.0
1664548876764,-0.61328125,0.9003906,0.12109375,25.75,-26.3125,-60.4375,0.0,0.0,0.0
1664548876789,-0.47070312,1.1474609,0.35058594,8.0,-49.5625,-29.875,0.0,0.0,0.0
1664548876849,-0.7685547,1.0341797,0.28027344,-44.875,-44.0,-8.5,0.0,0.0,0.0
1664548876887,-0.7060547,0.88183594,0.40234375,-31.375,-55.59375,26.21875,0.0,0.0,0.0
1664548876905,-0.5966797,0.89160156,0.39648438,-66.96875,-40.46875,36.96875,0.0,0.0,0.0
1664548876966,-0.5566406,0.3984375,0.5859375,-40.28125,-7.3125,21.59375,0.0,0.0,0.0
1664548877014,-0.5263672,0.5214844,0.55566406,-8.4375,4.71875,20.1875,-52.625,-23.1875,-77.875
1664548877061,-0.35351562,0.59375,0.59375,-12.8125,23.25,4.9375,0.0,0.0,0.0
1664548877129,-0.21777344,0.6386719,0.46679688,-31.5,27.90625,-11.6875,0.0,0.0,0.0
1664548877174,-0.22949219,0.5332031,0.69140625,-12.6875,11.1875,-34.0,0.0,0.0,0.0
1664548877215,-0.3359375,0.59375,0.4716797,-10.3125,17.53125,-32.4375,0.0,0.0,0.0
1664548877259,-0.34960938,0.55859375,0.8017578,-1.40625,15.28125,-34.0625,0.0,0.0,0.0
1664548877300,-0.45214844,0.7109375,0.5751953,-2.5,18.5,-22.59375,0.0,0.0,0.0
1664548877353,-0.4951172,0.8564453,0.6923828,22.875,15.9375,-19.25,0.0,0.0,0.0
1664548877457,-0.4658203,0.98339844,0.7763672,21.125,18.1875,-20.15625,0.0,0.0,0.0
1664548877459,-0.49316406,0.90722656,0.54296875,-5.875,17.84375,-8.375,0.0,0.0,0.0
1664548877498,-0.42578125,0.6845703,0.4638672,6.34375,15.5625,-5.5625,0.0,0.0,0.0
1664548877566,-0.40820312,0.7636719,0.38964844,15.4375,15.3125,-5.6875,0.0,0.0,0.0
1664548877604,-0.4189453,0.7109375,0.40234375,31.0625,6.71875,-14.71875,-61.375,-26.1875,-80.0
1664548877626,-0.42773438,0.71875,0.3955078,30.15625,5.1875,-22.34375,0.0,0.0,0.0
1664548877676,-0.43554688,0.85546875,0.4814453,18.78125,-0.125,-28.75,0.0,0.0,0.0
1664548877721,-0.44335938,0.80371094,0.45214844,27.46875,-10.78125,-24.5625,0.0,0.0,0.0
1664548877751,-0.4375,0.80371094,0.5263672,31.71875,-15.96875,-17.28125,0.0,0.0,0.0
1664548877786,-0.4482422,0.91796875,0.3095703,43.875,-15.0625,-19.96875,0.0,0.0,0.0
1664548877812,-0.40234375,1.0087891,0.4814453,41.125,-13.90625,-28.21875,0.0,0.0,0.0
1664548877833,-0.5527344,0.7138672,0.3232422,15.1875,-0.46875,-36.28125,0.0,0.0,0.0
1664548877897,-0.70996094,0.88378906,0.55078125,37.96875,-17.09375,-43.21875,0.0,0.0,0.0
1664548877928,-0.6855469,0.7792969,0.2421875,54.0625,-16.46875,-35.65625,0.0,0.0,0.0
1664548877946,-0.64160156,0.86816406,0.3701172,68.21875,-21.21875,-49.75,0.0,0.0,0.0
1664548878004,-0.8642578,0.83691406,0.24707031,76.03125,-23.0,-48.1875,0.0,0.0,0.0
1664548878037,-0.68359375,0.71191406,0.103515625,73.0625,-22.40625,-59.71875,0.0,0.0,0.0
1664548878067,-0.84765625,0.6777344,0.20019531,71.03125,-2.75,-63.75,-64.5,-22.0,-86.625
1664548878123,-0.87890625,0.57910156,0.07714844,88.125,-0.53125,-79.375,0.0,0.0,0.0
1664548878145,-0.82910156,0.44433594,0.072265625,76.65625,8.5625,-89.6875,0.0,0.0,0.0
1664548878193,-0.89941406,0.5917969,0.21191406,68.90625,1.78125,-102.875,0.0,0.0,0.0
1664548878280,-0.68847656,0.54785156,0.3388672,55.90625,8.4375,-101.625,0.0,0.0,0.0
1664548878284,-0.6455078,0.4970703,0.021484375,46.9375,-3.34375,-92.59375,0.0,0.0,0.0
1664548878309,-0.484375,0.6894531,-0.032226562,47.84375,-63.65625,-65.25,0.0,0.0,0.0
1664548878371,-0.4580078,0.74609375,0.13964844,-0.0625,-80.8125,-35.65625,0.0,0.0,0.0
1664548878412,-0.61328125,0.3828125,0.030273438,-55.5625,-67.125,-21.1875,0.0,0.0,0.0
1664548878426,-0.65234375,0.32910156,0.0048828125,-49.6875,-81.46875,-4.21875,0.0,0.0,0.0
1664548878474,-0.8076172,0.578125,0.22949219,-75.75,-60.0,10.25,0.0,0.0,0.0
1664548878495,-1.0654297,0.70996094,0.25976562,-118.53125,-27.15625,-15.75,0.0,0.0,0.0
1664548878520,-1.0761719,0.49414062,0.47460938,-91.4375,-44.25,-35.53125,-67.0625,-37.75,-81.0625
1664548878579,-1.1757812,0.13183594,0.71972656,-21.0625,-58.90625,-28.65625,0.0,0.0,0.0
1664548878590,-0.73339844,0.43164062,0.60546875,-0.1875,-40.75,-21.75,0.0,0.0,0.0
1664548878618,-0.76171875,0.3779297,0.8486328,12.375,-49.125,-11.0625,0.0,0.0,0.0
1664548878686,-0.59472656,0.2705078,0.7763672,9.625,-62.375,14.09375,0.0,0.0,0.0
1664548878732,-0.5800781,0.62109375,0.6064453,4.9375,-84.84375,58.40625,0.0,0.0,0.0
1664548878775,-0.5263672,0.45117188,0.578125,-18.5625,-105.875,109.40625,0.0,0.0,0.0
1664548878828,-0.60839844,0.23535156,0.62597656,-12.625,-77.4375,113.21875,0.0,0.0,0.0
1664548878862,-0.6816406,0.19433594,0.55859375,22.40625,-55.96875,100.6875,0.0,0.0,0.0
1664548878917,-0.63671875,0.45898438,0.69628906,21.40625,-32.59375,70.90625,0.0,0.0,0.0
1664548878976,-0.5214844,0.39160156,0.63964844,14.21875,-34.46875,42.96875,0.0,0.0,0.0
1664548879015,-0.4873047,0.52734375,0.4970703,3.34375,-45.34375,30.25,0.0,0.0,0.0
1664548879054,-0.4951172,0.54003906,0.5498047,-27.34375,-47.84375,21.46875,0.0,0.0,0.0
1664548879116,-0.5566406,0.55859375,0.7441406,-61.09375,-46.75,13.40625,-42.0,-33.4375,-68.625
1664548879146,-0.41210938,0.57910156,0.73535156,-86.1875,-40.21875,19.28125,0.0,0.0,0.0
1664548879171,-0.5283203,0.51660156,0.9394531,-101.5625,-52.78125,30.375,0.0,0.0,0.0
1664548879232,-0.2763672,0.03515625,1.0986328,-72.21875,-44.96875,13.34375,0.0,0.0,0.0
1664548879284,-0.30664062,0.25585938,1.0458984,-43.34375,-49.25,-7.09375,0.0,0.0,0.0
1664548879287,-0.265625,0.3671875,1.0380859,-62.125,-58.28125,-12.03125,0.0,0.0,0.0
1664548879331,-0.29296875,0.20898438,1.0273438,-41.9375,-66.40625,-15.40625,0.0,0.0,0.0
1664548879366,-0.10253906,0.2109375,1.0058594,-18.9375,-66.46875,-3.125,0.0,0.0,0.0
1664548879397,-0.09863281,0.38378906,1.0136719,-24.0,-64.4375,18.1875,0.0,0.0,0.0
1664548879497,-0.057617188,0.3408203,1.0136719,-58.28125,-39.90625,2.4375,0.0,0.0,0.0
1664548879516,0.03125,0.020507812,1.1523438,-59.6875,-17.21875,-17.78125,0.0,0.0,0.0
1664548879542,-0.36816406,0.08984375,0.9560547,-49.625,-15.1875,-17.03125,0.0,0.0,0.0
1664548879573,-0.0048828125,0.37402344,0.89746094,-34.0625,-35.40625,-12.71875,-19.8125,-55.4375,-68.125
1664548879628,0.0234375,-0.0546875,0.90625,-59.8125,5.8125,-13.1875,0.0,0.0,0.0
1664548879671,0.051757812,-0.10253906,1.1455078,-21.0,17.53125,-8.8125,0.0,0.0,0.0
1664548879743,0.34375,0.22265625,1.2685547,15.75,2.3125,9.5625,0.0,0.0,0.0
1664548879746,0.5800781,0.20410156,1.1875,-10.6875,30.78125,51.4375,0.0,0.0,0.0
1664548879773,0.095703125,-0.22460938,1.3271484,-24.3125,59.40625,46.6875,0.0,0.0,0.0
1664548879825,-0.1640625,-0.19921875,1.2558594,-6.90625,79.78125,8.09375,0.0,0.0,0.0
1664548879851,-0.072265625,-0.06347656,1.0517578,4.28125,82.59375,1.3125,0.0,0.0,0.0
1664548879891,-0.15527344,-0.08886719,0.9921875,-1.09375,107.90625,-15.59375,0.0,0.0,0.0
1664548879945,-0.30371094,-0.15917969,1.0595703,18.625,114.15625,-28.21875,0.0,0.0,0.0
1664548879983,-0.37890625,-0.14746094,0.9628906,31.0,113.40625,-38.59375,0.0,0.0,0.0
1664548880005,-0.36914062,0.03125,0.8173828,53.78125,108.46875,-43.03125,0.0,0.0,0.0
1664548880036,-0.3173828,0.015625,0.76953125,58.65625,109.75,-40.0625,0.0,0.0,0.0
1664548880077,-0.6064453,0.001953125,0.68359375,67.875,96.5,-27.1875,-48.0,-55.3125,-69.375
1664548880099,-0.63671875,0.15136719,0.6738281,64.03125,84.25,-21.625,0.0,0.0,0.0
1664548880130,-0.52441406,0.24804688,0.6748047,42.40625,101.9375,-12.53125,0.0,0.0,0.0
1664548880159,-0.73535156,0.14648438,0.546875,17.03125,113.03125,9.3125,0.0,0.0,0.0
1664548880188,-0.8095703,0.001953125,0.5185547,35.6875,122.03125,14.8125,0.0,0.0,0.0
1664548880266,-0.7216797,0.0234375,0.49023438,36.5,145.34375,18.84375,0.0,0.0,0.0
1664548880329,-0.6035156,0.15136719,0.31640625,24.21875,160.65625,33.84375,0.0,0.0,0.0
1664548880343,-0.84375,0.20410156,0.3408203,7.5625,163.75,52.0625,0.0,0.0,0.0
1664548880417,-0.8466797,0.23925781,0.27929688,-0.125,134.71875,52.34375,0.0,0.0,0.0
1664548880437,-0.7910156,0.18066406,0.3173828,22.75,103.34375,46.25,0.0,0.0,0.0
1664548880477,-0.8886719,0.15429688,0.18554688,-9.71875,102.0625,17.0,0.0,0.0,0.0
1664548880536,-0.84472656,0.16308594,0.022460938,-8.125,88.1875,5.90625,0.0,0.0,0.0
1664548880567,-1.0644531,0.38085938,0.068359375,4.09375,47.96875,11.09375,-79.625,-39.6875,-99.375
1664548880604,-0.9326172,0.5546875,0.109375,-1.28125,23.03125,10.25,0.0,0.0,0.0
1664548880656,-0.98535156,0.26367188,-0.09472656,-12.6875,3.96875,4.3125,0.0,0.0,0.0
1664548880680,-0.9951172,0.43066406,-0.07324219,-16.96875,5.4375,0.53125,0.0,0.0,0.0
1664548880722,-0.9951172,0.3515625,-0.08886719,-15.6875,4.09375,-0.5625,0.0,0.0,0.0
1664548880779,-1.0537109,0.35839844,0.046875,-13.5,-21.125,-8.3125,0.0,0.0,0.0
1664548880802,-1.0029297,0.4033203,0.076171875,-32.78125,-57.84375,-20.09375,0.0,0.0,0.0
1664548880814,-1.0029297,0.37109375,0.068359375,-37.0625,-106.5,-20.875,0.0,0.0,0.0
1664548880849,-0.9970703,0.5595703,0.095703125,-8.0625,-178.21875,5.28125,0.0,0.0,0.0
1664548880879,-0.9003906,0.5498047,0.36523438,32.40625,-223.8125,52.28125,0.0,0.0,0.0
1664548880918,-0.86621094,0.42871094,0.39257812,-9.28125,-178.71875,39.96875,0.0,0.0,0.0
1664548880978,-0.6347656,0.3720703,0.2705078,-7.8125,-71.46875,23.125,0.0,0.0,0.0
1664548881001,-0.4560547,0.35546875,0.3671875,-21.25,13.25,18.53125,0.0,0.0,0.0
1664548881038,-0.26464844,0.20214844,0.36621094,-50.59375,116.65625,-4.03125,-64.625,-41.8125,-79.25
1664548881100,-0.29101562,0.23535156,0.18847656,-82.21875,228.65625,-7.40625,0.0,0.0,0.0
1664548881120,-1.3154297,0.57714844,0.49023438,-77.53125,170.40625,38.25,0.0,0.0,0.0
1664548881154,-1.2226562,0.2421875,0.40527344,-25.75,90.46875,0.65625,0.0,0.0,0.0
1664548881229,-1.2646484,0.43066406,0.27246094,-67.8125,84.40625,-35.46875,0.0,0.0,0.0
1664548881240,-0.7626953,0.21972656,0.099609375,-73.0,49.6875,-30.84375,0.0,0.0,0.0
1664548881280,-0.95703125,0.15039062,-0.11328125,14.9375,30.09375,15.5625,0.0,0.0,0.0
1664548881360,-1.2050781,0.26171875,0.09082031,14.09375,17.21875,-5.75,0.0,0.0,0.0
1664548881377,-0.9277344,0.265625,0.33789062,-35.21875,17.03125,-26.875,0.0,0.0,0.0
1664548881416,-0.9658203,0.2939453,0.111328125,-78.375,20.46875,-26.5625,0.0,0.0,0.0
1664548881458,-0.9638672,0.09667969,-0.020507812,-46.46875,18.5625,-11.96875,0.0,0.0,0.0
1664548881494,-0.87402344,0.15722656,0.13183594,-18.375,4.71875,-7.53125,0.0,0.0,0.0
1664548881536,-0.94433594,0.19726562,0.23144531,-59.46875,-15.3125,-5.25,-78.625,-51.4375,-101.75
1664548881581,-0.8066406,0.14160156,0.27734375,-68.0,-24.09375,2.90625,0.0,0.0,0.0
1664548881614,-0.7949219,0.034179688,0.22363281,-64.75,-36.25,2.375,0.0,0.0,0.0
1664548881651,-0.46875,0.038085938,0.17578125,-19.65625,-29.84375,14.09375,0.0,0.0,0.0
1664548881700,-0.7949219,0.11230469,0.16015625,-27.65625,6.34375,20.625,0.0,0.0,0.0
1664548881741,-1.2246094,0.32617188,0.43652344,-3.3125,-19.34375,-5.625,0.0,0.0,0.0
1664548881774,-0.5048828,0.29101562,0.28515625,-20.28125,-69.5,-11.625,0.0,0.0,0.0
1664548881815,-0.4482422,-0.020507812,0.27246094,-14.21875,-71.53125,23.59375,0.0,0.0,0.0
1664548881869,-0.8515625,0.021484375,0.37402344,17.15625,-135.78125,48.3125,0.0,0.0,0.0
1664548881890,0.01171875,0.13574219,0.5078125,13.96875,-115.34375,94.53125,0.0,0.0,0.0
1664548881959,-0.39746094,-0.18164062,0.44140625,3.78125,-68.28125,101.1875,0.0,0.0,0.0
1664548881962,-0.3671875,-0.13378906,0.23925781,63.96875,-70.84375,66.875,0.0,0.0,0.0
1664548882001,-1.1054688,0.55371094,1.3574219,82.875,-101.5,58.15625,0.0,0.0,0.0
1664548882046,-1.9863281,0.9785156,1.0097656,42.53125,-83.4375,-68.625,-66.75,-40.4375,-81.1875
1664548882047,-1.9863281,2.015625,0.95703125,-149.53125,38.53125,-203.375,0.0,0.0,0.0
1664548882067,-1.0722656,-0.28125,1.2001953,-99.75,-19.03125,-192.875,0.0,0.0,0.0
1664548882109,-1.3222656,0.078125,0.30273438,123.28125,-217.34375,-29.96875,0.0,0.0,0.0
1664548882126,-0.9892578,0.7607422,0.11035156,245.1875,-188.53125,-55.875,0.0,0.0,0.0
1664548882159,-0.5175781,0.4248047,0.08984375,244.625,-167.09375,-55.4375,0.0,0.0,0.0
1664548882204,-0.0625,0.30371094,-0.16503906,113.15625,-35.03125,-46.03125,0.0,0.0,0.0
1664548882218,0.2607422,0.25390625,0.21777344,29.15625,102.1875,-85.46875,0.0,0.0,0.0
1664548882239,0.03125,0.025390625,0.18554688,5.4375,237.5625,-114.46875,0.0,0.0,0.0
1664548882303,-1.1484375,-0.40625,0.6064453,13.78125,221.125,-75.875,0.0,0.0,0.0
1664548882335,-1.9863281,1.28125,-0.4345703,155.4375,119.9375,-68.0625,0.0,0.0,0.0
1664548882355,-0.75,1.7441406,0.6123047,-3.4375,49.375,8.90625,0.0,0.0,0.0
1664548882417,-0.3486328,1.03125,0.044921875,-26.1875,21.75,40.875,-72.875,-37.3125,-89.4375
1664548882460,-1.0917969,0.068359375,0.5517578,1.09375,71.96875,46.25,0.0,0.0,0.0
1664548882482,-1.9863281,-0.26171875,-0.07421875,41.75,61.28125,11.09375,0.0,0.0,0.0
1664548882570,-0.37597656,0.19238281,0.29882812,43.03125,16.25,-61.90625,0.0,0.0,0.0
1664548882598,-0.5761719,0.33007812,0.13964844,85.875,13.6875,28.4375,0.0,0.0,0.0
1664548882615,-1.2568359,0.47851562,0.26660156,45.09375,34.1875,20.3125,0.0,0.0,0.0
1664548882672,-1.1738281,0.4580078,0.3076172,49.1875,-24.84375,6.09375,0.0,0.0,0.0
1664548882690,-1.0029297,0.06738281,0.26660156,3.96875,-17.6875,-25.96875,0.0,0.0,0.0
1664548882723,-0.85058594,0.359375,-0.2109375,16.84375,0.3125,-16.5625,0.0,0.0,0.0
1664548882784,-0.9296875,0.44140625,0.001953125,25.9375,-7.125,-5.09375,0.0,0.0,0.0
1664548882818,-0.91308594,0.4609375,0.23730469,-11.46875,9.15625,-4.34375,0.0,0.0,0.0
1664548882843,-1.0058594,0.3564453,0.16210938,-5.75,6.84375,-2.28125,0.0,0.0,0.0
1664548882913,-0.97753906,0.22949219,0.06347656,-2.03125,-4.5,-4.84375,0.0,0.0,0.0
1664548882946,-0.91503906,0.30078125,0.07519531,-1.53125,-0.0625,-3.90625,-74.25,-34.4375,-95.125
1664548882975,-0.93066406,0.37597656,0.1015625,1.875,-1.21875,2.0625,0.0,0.0,0.0
1664548883018,-0.93359375,0.4404297,0.10839844,5.59375,-5.84375,3.15625,0.0,0.0,0.0
1664548883052,-0.9326172,0.3701172,0.091796875,-0.8125,-6.9375,4.375,0.0,0.0,0.0
1664548883088,-0.92285156,0.3310547,0.09765625,-8.5,-3.15625,4.0625,0.0,0.0,0.0
1664548883160,-0.93359375,0.3935547,0.09277344,-6.53125,0.25,1.28125,0.0,0.0,0.0
1664548883195,-0.91308594,0.3955078,0.119140625,-1.34375,-1.34375,2.65625,0.0,0.0,0.0
1664548883226,-0.89941406,0.39453125,0.123046875,-2.03125,-1.53125,5.21875,0.0,0.0,0.0
1664548883281,-0.9082031,0.38671875,0.13378906,-3.25,-2.625,5.0625,0.0,0.0,0.0
1664548883320,-0.921875,0.3955078,0.123046875,2.9375,-2.6875,3.9375,0.0,0.0,0.0
1664548883345,-0.8935547,0.4326172,0.123046875,1.28125,-2.96875,3.84375,0.0,0.0,0.0
1664548883395,-0.9082031,0.4345703,0.14941406,-0.3125,-3.40625,5.34375,0.0,0.0,0.0
1664548883425,-0.92089844,0.4091797,0.12890625,-0.625,-2.4375,2.96875,-72.125,-34.4375,-94.5625
1664548883440,-0.9013672,0.39453125,0.12011719,-2.4375,0.0,2.5,0.0,0.0,0.0
1664548883499,-0.89941406,0.4267578,0.12011719,0.375,-1.03125,2.90625,0.0,0.0,0.0
1664548883540,-0.90527344,0.4345703,0.13671875,3.53125,-3.28125,3.09375,0.0,0.0,0.0
1664548883585,-0.8925781,0.43164062,0.13085938,1.40625,-2.0,2.4375,0.0,0.0,0.0
