# Sensor type: Thingy
# Activity type: Falling on knees
# Activity code: 48
# Subject id: s1956488
# Notes: 1
timestamp,accel_x,accel_y,accel_z,gyro_x,gyro_y,gyro_z,mag_x,mag_y,mag_z
1664548780302,-0.54785156,0.43554688,0.796875,6.40625,-7.5,-5.5,0.0,0.0,0.0
1664548780303,-0.5839844,0.484375,0.7558594,-3.71875,9.84375,-11.1875,0.0,0.0,0.0
1664548780304,-0.6933594,0.56933594,0.94921875,-16.1875,32.53125,-26.6875,0.0,0.0,0.0
1664548780305,-0.6621094,0.4248047,0.83984375,-25.6875,59.625,-38.59375,0.0,0.0,0.0
1664548780376,-0.6738281,0.4423828,0.7089844,-28.9375,93.40625,-42.5625,0.0,0.0,0.0
1664548780391,-0.6035156,0.43359375,0.6269531,-31.3125,107.6875,-27.34375,0.0,0.0,0.0
1664548780461,-0.5175781,0.37890625,0.45507812,-35.59375,102.53125,1.21875,-55.8125,-41.5,-72.0625
1664548780491,-0.6074219,0.28808594,0.53808594,-33.46875,117.625,17.25,0.0,0.0,0.0
1664548780518,-1.0664062,0.12890625,0.46289062,-9.90625,103.9375,1.21875,0.0,0.0,0.0
1664548780545,-0.99316406,0.08886719,0.39941406,27.875,89.5,-12.28125,0.0,0.0,0.0
1664548780611,-0.76660156,0.13183594,0.3232422,48.5625,93.625,-11.5,0.0,0.0,0.0
1664548780629,-0.8251953,0.22753906,0.38964844,64.3125,69.40625,8.96875,0.0,0.0,0.0
1664548780657,-0.8544922,0.12695312,0.44433594,59.125,47.96875,12.25,0.0,0.0,0.0
1664548780742,-0.8261719,0.03515625,0.38476562,50.46875,40.65625,-3.5625,0.0,0.0,0.0
1664548780805,-0.9394531,0.14257812,0.07324219,49.875,46.5625,-5.75,0.0,0.0,0.0
1664548780806,-0.9589844,0.39648438,0.12792969,63.65625,33.46875,15.71875,0.0,0.0,0.0
1664548780837,-0.86328125,0.27539062,0.06542969,58.34375,37.3125,21.65625,0.0,0.0,0.0
1664548780872,-0.8544922,0.17773438,0.07519531,51.5,48.96875,14.6875,0.0,0.0,0.0
1664548780958,-0.94921875,0.21777344,0.10839844,30.9375,37.53125,6.6875,-75.0,-32.375,-96.9375
1664548780993,-1.0703125,0.39941406,-0.037109375,25.3125,32.59375,5.28125,0.0,0.0,0.0
1664548781023,-0.88671875,0.4560547,0.020507812,24.40625,20.75,21.40625,0.0,0.0,0.0
1664548781050,-1.0439453,0.34179688,-0.0087890625,8.40625,6.71875,19.46875,0.0,0.0,0.0
1664548781105,-0.9267578,0.3876953,0.13867188,0.25,-9.34375,9.9375,0.0,0.0,0.0
1664548781132,-1.0214844,0.36035156,-0.08105469,1.53125,6.0625,6.34375,0.0,0.0,0.0
1664548781175,-0.96777344,0.359375,-0.09472656,12.4375,1.21875,-1.78125,0.0,0.0,0.0
1664548781244,-0.98339844,0.44726562,-0.08300781,15.625,-35.34375,10.125,0.0,0.0,0.0
1664548781269,-0.96972656,0.4921875,0.0546875,17.625,-69.6875,0.21875,0.0,0.0,0.0
1664548781285,-1.0449219,0.4658203,0.18359375,17.9375,-95.9375,-12.28125,0.0,0.0,0.0
1664548781355,-1.0751953,0.390625,0.25878906,22.8125,-95.75,-19.53125,0.0,0.0,0.0
1664548781386,-1.0722656,0.6328125,0.3310547,-15.3125,-125.40625,-40.90625,0.0,0.0,0.0
1664548781421,-0.7314453,0.24902344,0.54296875,21.90625,-158.3125,-43.40625,0.0,0.0,0.0
1664548781486,-0.44921875,-0.026367188,0.087890625,49.1875,-99.3125,-56.40625,-67.625,-31.1875,-83.75
1664548781506,-0.13378906,0.25683594,-0.16503906,-40.34375,62.1875,-32.375,0.0,0.0,0.0
1664548781556,-0.15527344,0.5839844,0.06640625,78.3125,115.25,21.21875,0.0,0.0,0.0
1664548781567,-0.8671875,0.5371094,0.24023438,-16.5,166.5,41.0625,0.0,0.0,0.0
1664548781611,-1.9863281,0.43066406,0.72753906,-42.65625,42.96875,2.5625,0.0,0.0,0.0
1664548781636,-0.49804688,0.6826172,0.7207031,-58.28125,-69.03125,-32.84375,0.0,0.0,0.0
1664548781691,-0.28222656,0.095703125,0.13769531,-65.3125,-55.09375,24.9375,0.0,0.0,0.0
1664548781714,-0.92578125,-0.4267578,-0.2998047,-72.40625,20.5625,23.1875,0.0,0.0,0.0
1664548781751,-1.2597656,0.2939453,0.46875,62.1875,-47.21875,26.59375,0.0,0.0,0.0
1664548781810,-0.9667969,0.46777344,0.46972656,-16.125,-37.15625,11.09375,0.0,0.0,0.0
1664548781832,-0.57714844,0.328125,0.34765625,-36.125,9.59375,-31.625,0.0,0.0,0.0
1664548781861,-0.87890625,0.053710938,0.32910156,-39.6875,3.96875,-13.0625,0.0,0.0,0.0
1664548781917,-1.1191406,0.111328125,0.31933594,-18.9375,-63.78125,-11.84375,-68.25,-33.125,-86.3125
1664548781957,-0.21777344,0.068359375,0.32421875,25.1875,-23.96875,2.5,0.0,0.0,0.0
1664548781992,-0.5029297,0.123046875,0.44335938,13.59375,-36.5625,-0.3125,0.0,0.0,0.0
1664548782060,-0.41601562,0.059570312,0.14257812,10.625,-1.46875,-20.21875,0.0,0.0,0.0
1664548782074,-0.6074219,0.24511719,0.35839844,-21.75,2.75,-29.0625,0.0,0.0,0.0
1664548782097,-0.80859375,0.20507812,0.12011719,15.125,11.3125,-14.3125,0.0,0.0,0.0
1664548782178,-0.7373047,0.57421875,0.016601562,8.71875,25.09375,-7.40625,0.0,0.0,0.0
1664548782221,-0.5419922,0.21582031,-0.11621094,-32.0,34.25,-19.25,0.0,0.0,0.0
1664548782274,-0.47558594,0.083984375,0.38378906,23.625,7.625,-29.5,0.0,0.0,0.0
1664548782420,-1.9863281,1.3037109,1.453125,2.8125,6.40625,-42.6875,0.0,0.0,0.0
1664548782452,0.29003906,1.6777344,1.1464844,-51.21875,-192.9375,-53.125,0.0,0.0,0.0
1664548782485,-1.1611328,-0.73828125,0.051757812,27.65625,-33.625,-38.46875,0.0,0.0,0.0
1664548782553,-1.1474609,0.50390625,0.045898438,25.03125,42.5,4.375,0.0,0.0,0.0
1664548782569,-1.3632812,0.140625,0.53515625,42.71875,4.03125,31.28125,-66.125,-42.5625,-81.9375
1664548782612,-0.61621094,0.03125,0.6279297,15.0,3.3125,3.65625,0.0,0.0,0.0
1664548782673,-0.33984375,0.11035156,0.5703125,-5.9375,14.96875,4.3125,0.0,0.0,0.0
1664548782702,-0.73339844,-0.0390625,0.45214844,-15.03125,20.46875,12.3125,0.0,0.0,0.0
1664548782730,-0.7294922,0.059570312,0.37304688,0.125,9.90625,10.46875,0.0,0.0,0.0
1664548782774,-1.0009766,0.39941406,0.3876953,-18.5,10.3125,6.03125,0.0,0.0,0.0
1664548782795,-1.2578125,0.4326172,0.25195312,-25.9375,18.1875,0.15625,0.0,0.0,0.0
1664548782835,-1.125,0.16894531,0.2705078,-14.65625,9.84375,8.40625,0.0,0.0,0.0
1664548782883,-0.9970703,0.08496094,0.29492188,2.125,2.3125,10.90625,0.0,0.0,0.0
1664548782911,-0.82714844,0.09472656,0.36816406,26.3125,-12.0625,11.09375,0.0,0.0,0.0
1664548782947,-0.82128906,0.24804688,0.42578125,25.6875,-22.40625,11.75,0.0,0.0,0.0
1664548782969,-0.7753906,0.19238281,0.39648438,15.9375,-18.5625,7.84375,0.0,0.0,0.0
1664548783013,-0.92089844,0.29296875,0.34960938,0.3125,-13.125,4.25,-65.375,-38.375,-82.5625
1664548783044,-0.99609375,0.3232422,0.2763672,-1.34375,-25.875,1.21875,0.0,0.0,0.0
1664548783106,-0.97558594,0.32910156,0.2841797,0.0,-39.0625,-1.46875,0.0,0.0,0.0
1664548783156,-0.9580078,0.32714844,0.31640625,-9.28125,-40.21875,-9.96875,0.0,0.0,0.0
1664548783158,-0.9003906,0.29296875,0.35351562,-21.0,-46.0625,-13.625,0.0,0.0,0.0
1664548783204,-0.90722656,0.23632812,0.3779297,-29.4375,-51.1875,-19.125,0.0,0.0,0.0
1664548783230,-0.74121094,0.19140625,0.4951172,-25.28125,-63.15625,-26.03125,0.0,0.0,0.0
1664548783257,-0.9355469,0.265625,0.5703125,-23.625,-83.5,-14.78125,0.0,0.0,0.0
1664548783296,-1.4541016,0.24707031,0.7714844,22.15625,-133.59375,-12.40625,0.0,0.0,0.0
1664548783306,-1.2695312,0.5917969,0.98535156,21.53125,-169.625,18.96875,0.0,0.0,0.0
1664548783362,-0.5703125,0.75683594,1.1152344,11.65625,-179.8125,72.75,0.0,0.0,0.0
1664548783384,-0.9111328,0.42773438,1.1748047,-23.75,-186.75,171.5,0.0,0.0,0.0
1664548783415,-0.828125,-0.13964844,0.76953125,-21.0,-154.03125,146.34375,0.0,0.0,0.0
1664548783448,-0.171875,-0.08203125,0.7216797,-11.46875,-90.03125,77.8125,-26.5625,-39.25,-65.4375
1664548783492,-0.23730469,0.23632812,0.9589844,-56.03125,-3.03125,38.3125,0.0,0.0,0.0
1664548783517,-0.040039062,0.19921875,1.1669922,-96.0625,39.5,-11.84375,0.0,0.0,0.0
1664548783537,0.28808594,-0.0390625,1.1621094,-94.5,67.5,-45.65625,0.0,0.0,0.0
1664548783628,0.13867188,-0.30078125,0.953125,-73.0,106.75,-65.875,0.0,0.0,0.0
1664548783668,0.036132812,-0.26171875,0.95214844,0.3125,122.75,-89.1875,0.0,0.0,0.0
1664548783694,-0.2578125,0.02734375,1.0214844,37.21875,96.9375,-61.0625,0.0,0.0,0.0
1664548783723,-0.18945312,-0.068359375,0.87402344,35.875,94.625,-51.28125,0.0,0.0,0.0
1664548783752,-0.38476562,-0.045898438,0.67285156,51.625,90.40625,-25.09375,0.0,0.0,0.0
1664548783842,-0.40527344,0.18359375,0.7373047,58.21875,92.65625,1.3125,0.0,0.0,0.0
1664548783877,-0.671875,0.10839844,0.63183594,41.1875,103.15625,28.65625,0.0,0.0,0.0
1664548783915,-0.828125,0.24414062,0.7734375,47.25,99.875,31.25,0.0,0.0,0.0
1664548783940,-0.91503906,0.0859375,0.53125,42.71875,116.34375,48.4375,-54.625,-40.625,-73.875
1664548783974,-0.7910156,0.26367188,0.47753906,43.625,127.6875,36.25,0.0,0.0,0.0
1664548784009,-0.84472656,0.15429688,0.2890625,36.0625,144.59375,48.75,0.0,0.0,0.0
1664548784078,-0.9013672,0.16308594,0.33007812,23.4375,150.03125,33.75,0.0,0.0,0.0
1664548784108,-0.6464844,0.33691406,0.1796875,18.25,148.375,46.125,0.0,0.0,0.0
1664548784143,-0.6689453,0.27148438,0.1796875,30.5,105.78125,51.75,0.0,0.0,0.0
1664548784193,-0.7314453,0.2607422,0.28027344,5.0,119.8125,40.4375,0.0,0.0,0.0
1664548784212,-0.8203125,0.0107421875,0.19042969,0.3125,99.0,12.375,0.0,0.0,0.0
1664548784253,-0.84765625,0.043945312,-0.0048828125,21.1875,57.25,2.71875,0.0,0.0,0.0
1664548784298,-0.8779297,0.46191406,0.21484375,33.3125,16.96875,0.03125,0.0,0.0,0.0
1664548784366,-0.9560547,0.5957031,0.0859375,21.0,-9.9375,3.53125,0.0,0.0,0.0
1664548784388,-1.0947266,0.36035156,0.0078125,7.0625,-5.5625,-1.34375,0.0,0.0,0.0
1664548784452,-1.0361328,0.30566406,-0.055664062,25.09375,8.0625,-16.875,0.0,0.0,0.0
1664548784486,-0.953125,0.48046875,0.03515625,23.5625,-1.46875,-13.0625,-74.125,-29.0625,-100.875
1664548784515,-0.8798828,0.4794922,-0.0625,21.28125,-7.4375,10.46875,0.0,0.0,0.0
1664548784561,-0.91308594,0.35839844,-0.06347656,19.15625,19.21875,9.875,0.0,0.0,0.0
1664548784575,-0.8417969,0.46972656,-0.123046875,10.5,25.28125,3.59375,0.0,0.0,0.0
1664548784609,-0.9785156,0.42089844,-0.018554688,8.0,11.71875,11.21875,0.0,0.0,0.0
1664548784663,-1.0019531,0.3701172,-0.0546875,-3.59375,-2.6875,3.84375,0.0,0.0,0.0
1664548784677,-0.9511719,0.36523438,-0.0546875,-11.90625,-13.3125,-1.25,0.0,0.0,0.0
1664548784713,-0.84472656,0.42578125,-0.07128906,-22.09375,-16.03125,-1.40625,0.0,0.0,0.0
1664548784767,-0.8388672,0.33496094,-0.00390625,-10.9375,-16.53125,11.28125,0.0,0.0,0.0
1664548784797,-0.8486328,0.32910156,0.060546875,-26.8125,-24.59375,-1.34375,0.0,0.0,0.0
1664548784840,-0.8388672,0.26660156,0.115234375,-33.03125,-52.84375,-10.625,0.0,0.0,0.0
1664548784948,-0.8730469,0.34375,0.36523438,-36.75,-124.4375,-19.125,0.0,0.0,0.0
1664548784977,-0.73828125,0.359375,-0.16992188,-47.125,-93.6875,-16.8125,-72.0,-28.3125,-94.375
1664548785029,-0.6347656,0.10839844,0.37890625,1.8125,-76.65625,4.25,0.0,0.0,0.0
1664548785106,-0.6376953,0.18066406,0.34765625,-12.625,-84.46875,5.1875,0.0,0.0,0.0
1664548785128,-0.9277344,0.25878906,0.23339844,-56.65625,-62.0625,-22.96875,0.0,0.0,0.0
1664548785172,-0.57128906,0.41210938,0.7919922,-26.75,-73.46875,-31.5625,0.0,0.0,0.0
1664548785211,-0.6894531,0.2998047,0.6201172,-42.375,-65.1875,-24.625,0.0,0.0,0.0
1664548785237,-0.43066406,-0.09375,0.36914062,-32.90625,-27.46875,-17.09375,0.0,0.0,0.0
1664548785279,-0.47753906,-0.0048828125,0.5703125,4.625,-50.03125,-4.40625,0.0,0.0,0.0
1664548785311,-0.78515625,0.2919922,0.46484375,4.5,-20.75,2.59375,0.0,0.0,0.0
1664548785352,-0.5498047,0.26660156,0.2734375,1.9375,8.25,-36.75,0.0,0.0,0.0
1664548785397,-0.62402344,0.23828125,0.009765625,15.0625,27.78125,-25.40625,0.0,0.0,0.0
1664548785412,-0.45996094,0.3564453,0.12597656,5.4375,37.96875,-24.84375,0.0,0.0,0.0
1664548785438,-0.109375,0.064453125,-0.09277344,18.3125,91.6875,-29.0625,0.0,0.0,0.0
1664548785454,-1.4628906,0.5683594,1.515625,16.0,31.375,-5.75,-66.625,-38.1875,-82.875
1664548785503,-1.9863281,1.7841797,-0.55859375,6.84375,-103.375,-44.625,0.0,0.0,0.0
1664548785519,-1.5878906,-1.1142578,-0.20703125,-94.5,-37.78125,-46.875,0.0,0.0,0.0
1664548785552,-1.4599609,0.8388672,0.14941406,29.03125,66.21875,11.28125,0.0,0.0,0.0
1664548785637,-1.0673828,-0.0087890625,0.4658203,12.3125,63.0625,0.90625,0.0,0.0,0.0
1664548785662,-0.96484375,-0.018554688,0.28515625,59.125,14.21875,18.59375,0.0,0.0,0.0
1664548785680,-0.3046875,0.20703125,0.62597656,26.0,7.75,12.875,0.0,0.0,0.0
1664548785744,-0.51171875,0.103515625,0.38476562,14.8125,9.96875,10.59375,0.0,0.0,0.0
1664548785773,-0.78808594,0.09765625,0.31640625,14.21875,7.40625,11.09375,0.0,0.0,0.0
1664548785799,-0.8798828,0.41796875,0.3564453,-3.59375,13.0625,3.90625,0.0,0.0,0.0
1664548785847,-1.1904297,0.40820312,0.24804688,-24.25,10.5625,9.875,0.0,0.0,0.0
1664548785878,-1.1708984,0.30664062,0.20800781,-13.1875,6.90625,7.84375,0.0,0.0,0.0
1664548785907,-1.1132812,0.27734375,0.19335938,-5.5625,9.84375,3.71875,-66.75,-38.0625,-83.875
1664548786037,-0.93847656,0.17089844,0.30664062,16.21875,3.90625,6.46875,0.0,0.0,0.0
1664548786042,-0.859375,0.16894531,0.34375,23.84375,-4.4375,9.875,0.0,0.0,0.0
1664548786103,-0.77441406,0.22851562,0.3720703,21.78125,-6.34375,7.5625,0.0,0.0,0.0
1664548786180,-0.80371094,0.29296875,0.34277344,7.5,-1.53125,5.125,0.0,0.0,0.0
1664548786204,-0.9394531,0.3095703,0.27148438,-1.71875,-0.46875,7.125,0.0,0.0,0.0
1664548786243,-1.0351562,0.2998047,0.22949219,-5.125,-6.15625,6.34375,0.0,0.0,0.0
1664548786286,-0.9980469,0.29882812,0.21875,1.40625,-9.40625,4.4375,0.0,0.0,0.0
1664548786323,-0.9970703,0.3564453,0.22363281,2.5,-15.8125,7.0,0.0,0.0,0.0
1664548786354,-0.9169922,0.31054688,0.2705078,2.5625,-22.03125,4.75,0.0,0.0,0.0
1664548786419,-0.8642578,0.33789062,0.27539062,-3.3125,-26.71875,1.5625,0.0,0.0,0.0
1664548786440,-0.8623047,0.33496094,0.28515625,-14.28125,-34.40625,-1.0625,0.0,0.0,0.0
1664548786474,-0.8847656,0.3076172,0.26953125,-25.34375,-42.71875,-5.9375,0.0,0.0,0.0
1664548786528,-0.9482422,0.33007812,0.2763672,-30.21875,-55.78125,-11.90625,-63.4375,-36.125,-81.0625
1664548786544,-0.9433594,0.30273438,0.33496094,-32.28125,-64.6875,-9.21875,0.0,0.0,0.0
1664548786560,-0.9511719,0.19921875,0.48535156,-5.9375,-84.59375,-4.71875,0.0,0.0,0.0
1664548786630,-1.1621094,0.3173828,0.68652344,-3.3125,-103.3125,3.21875,0.0,0.0,0.0
1664548786661,-1.09375,0.50878906,0.7373047,-37.0,-71.40625,-19.125,0.0,0.0,0.0
1664548786697,-0.9863281,0.3798828,0.94921875,-65.4375,-71.21875,-26.4375,0.0,0.0,0.0
1664548786771,-1.0253906,0.35546875,1.0546875,-39.96875,-132.9375,17.6875,0.0,0.0,0.0
1664548786798,-0.75097656,0.4873047,0.97753906,-63.84375,-140.4375,59.5625,0.0,0.0,0.0
1664548786838,-0.8027344,-0.045898438,0.73339844,-56.90625,-123.15625,57.84375,0.0,0.0,0.0
1664548786902,-0.60058594,-0.095703125,0.7207031,-7.5,-120.59375,61.15625,0.0,0.0,0.0
1664548786922,-0.4453125,-0.061523438,0.92578125,-14.65625,-59.9375,15.84375,0.0,0.0,0.0
1664548786936,-0.060546875,0.11035156,0.9716797,-37.375,-9.09375,-34.125,0.0,0.0,0.0
1664548787002,-0.056640625,0.018554688,1.0751953,-56.15625,35.65625,-53.0,-33.125,-45.125,-67.5625
1664548787038,-0.2421875,-0.15429688,0.95214844,-38.21875,57.3125,-67.28125,0.0,0.0,0.0
1664548787072,0.12109375,-0.07421875,0.828125,9.09375,82.78125,-80.40625,0.0,0.0,0.0
1664548787127,-0.13867188,-0.0546875,0.91015625,12.4375,96.375,-55.8125,0.0,0.0,0.0
1664548787167,-0.49609375,-0.14355469,0.8535156,35.46875,90.875,-47.6875,0.0,0.0,0.0
1664548787184,-0.36035156,0.11035156,0.8457031,53.03125,70.9375,-36.15625,0.0,0.0,0.0
1664548787233,-0.5390625,0.08886719,0.79785156,21.65625,77.46875,-5.4375,0.0,0.0,0.0
1664548787249,-0.6982422,0.056640625,0.66015625,24.78125,64.34375,5.78125,0.0,0.0,0.0
1664548787266,-0.6376953,-0.051757812,0.7294922,44.90625,61.03125,26.40625,0.0,0.0,0.0
1664548787321,-0.82421875,0.20019531,0.8378906,50.84375,43.90625,31.65625,0.0,0.0,0.0
1664548787340,-0.7919922,0.20507812,0.67578125,25.625,57.8125,42.78125,0.0,0.0,0.0
1664548787392,-0.7841797,0.19238281,0.5517578,26.46875,69.78125,47.40625,0.0,0.0,0.0
1664548787453,-0.97265625,0.234375,0.49023438,14.75,86.0625,47.03125,0.0,0.0,0.0
1664548787472,-0.8808594,0.21875,0.40429688,22.21875,100.59375,48.875,-62.25,-38.375,-78.1875
1664548787498,-0.8144531,0.26660156,0.41015625,6.78125,120.75,35.3125,0.0,0.0,0.0
1664548787547,-0.75390625,0.22851562,0.068359375,14.03125,119.875,50.21875,0.0,0.0,0.0
1664548787577,-0.68066406,-0.12011719,0.0029296875,56.625,102.25,46.5,0.0,0.0,0.0
1664548787642,-0.6386719,0.06347656,0.20800781,74.34375,65.6875,33.90625,0.0,0.0,0.0
1664548787669,-0.70410156,0.3232422,0.6113281,25.3125,73.8125,23.90625,0.0,0.0,0.0
1664548787707,-0.68847656,0.33398438,0.43164062,-46.28125,87.21875,12.0,0.0,0.0,0.0
1664548787740,-0.7832031,0.26953125,-0.1171875,-28.8125,42.65625,22.875,0.0,0.0,0.0
1664548787794,-1.2822266,0.13867188,0.028320312,-11.46875,10.4375,16.9375,0.0,0.0,0.0
1664548787815,-1.1865234,0.4736328,-0.01953125,37.40625,24.0625,1.5,0.0,0.0,0.0
1664548787861,-0.7529297,0.734375,-0.021484375,31.4375,9.53125,7.96875,0.0,0.0,0.0
1664548787924,-0.8417969,0.4501953,0.20117188,9.34375,2.4375,12.75,0.0,0.0,0.0
1664548787959,-1.1503906,0.29589844,0.055664062,-27.03125,7.5,-1.1875,-74.125,-26.1875,-97.125
1664548787985,-0.78027344,0.453125,0.01953125,-31.5625,10.3125,-2.53125,0.0,0.0,0.0
1664548788036,-0.66015625,0.390625,0.00390625,2.625,6.125,9.6875,0.0,0.0,0.0
1664548788072,-0.90234375,0.45507812,-0.083984375,28.8125,3.78125,15.78125,0.0,0.0,0.0
1664548788091,-0.94140625,0.48046875,0.03125,11.71875,17.34375,6.5,0.0,0.0,0.0
1664548788160,-0.8828125,0.5234375,0.08300781,-8.71875,3.1875,0.34375,0.0,0.0,0.0
1664548788166,-0.8144531,0.47070312,0.04296875,-20.5,-18.25,2.84375,0.0,0.0,0.0
1664548788195,-0.796875,0.3671875,0.06347656,-7.625,-45.71875,5.21875,0.0,0.0,0.0
1664548788263,-0.72265625,0.34570312,0.27929688,-6.125,-44.5625,0.03125,0.0,0.0,0.0
1664548788281,-0.6689453,0.41308594,0.2763672,-37.71875,-27.6875,-11.375,0.0,0.0,0.0
1664548788311,-0.6142578,0.15234375,0.17089844,-34.0625,-33.3125,-20.09375,0.0,0.0,0.0
1664548788374,-0.57421875,0.35253906,0.28808594,-20.9375,-77.25,-28.9375,0.0,0.0,0.0
1664548788408,-0.70410156,0.41796875,0.23242188,-55.4375,-89.96875,-16.0625,0.0,0.0,0.0
1664548788456,-0.7763672,0.22265625,0.6347656,-51.21875,-47.125,-33.53125,-68.25,-29.8125,-88.125
1664548788507,-0.453125,0.016601562,0.32226562,-29.78125,-40.65625,-29.375,0.0,0.0,0.0
1664548788516,-0.4189453,0.22558594,0.7597656,-22.28125,-77.6875,-9.21875,0.0,0.0,0.0
1664548788559,-0.5371094,0.119140625,0.6064453,14.875,-59.0625,-1.40625,0.0,0.0,0.0
1664548788622,-0.9042969,0.26464844,0.16503906,-30.71875,-25.75,-18.75,0.0,0.0,0.0
1664548788637,-0.86816406,0.18652344,0.22363281,2.4375,-14.46875,-11.78125,0.0,0.0,0.0
1664548788679,-0.7109375,0.5234375,0.06933594,49.0,-13.84375,-1.1875,0.0,0.0,0.0
1664548788727,-0.23144531,0.3203125,0.025390625,-19.0625,39.0,-8.875,0.0,0.0,0.0
1664548788793,-0.21289062,-0.091796875,-0.17382812,-7.21875,80.21875,-30.53125,0.0,0.0,0.0
1664548788821,-1.5859375,0.6767578,1.2578125,4.28125,52.3125,-16.0625,0.0,0.0,0.0
1664548788909,-1.9863281,1.1308594,-1.0175781,45.03125,-101.25,-61.125,0.0,0.0,0.0
1664548788959,-1.3125,-0.61328125,-0.4296875,-62.5625,-33.1875,-24.3125,0.0,0.0,0.0
1664548788993,-1.453125,0.30078125,0.06542969,31.90625,82.46875,1.75,-64.1875,-41.375,-80.4375
1664548789035,-1.15625,0.25585938,0.59472656,22.75,45.40625,5.125,0.0,0.0,0.0
1664548789080,-0.84375,0.1796875,0.40234375,63.59375,29.125,6.5,0.0,0.0,0.0
1664548789095,-0.24902344,0.09667969,0.7080078,-0.375,26.0625,17.375,0.0,0.0,0.0
1664548789138,-0.49609375,-0.09472656,0.34277344,10.1875,17.59375,6.46875,0.0,0.0,0.0
1664548789169,-0.75390625,0.21972656,0.35058594,7.9375,24.375,-1.0625,0.0,0.0,0.0
1664548789216,-0.9873047,0.35742188,0.30859375,-5.375,21.0625,-1.71875,0.0,0.0,0.0
1664548789266,-1.2929688,0.3935547,0.1328125,-4.78125,15.8125,2.84375,0.0,0.0,0.0
1664548789309,-1.2373047,0.4326172,0.08691406,8.78125,11.0625,9.3125,0.0,0.0,0.0
1664548789334,-1.0927734,0.31933594,0.1640625,10.0,11.25,9.75,0.0,0.0,0.0
1664548789368,-0.89453125,0.22460938,0.2861328,21.40625,12.28125,11.09375,0.0,0.0,0.0
1664548789412,-0.7480469,0.24414062,0.35546875,20.9375,8.5,11.34375,0.0,0.0,0.0
1664548789452,-0.71972656,0.22753906,0.33984375,8.84375,10.4375,8.71875,0.0,0.0,0.0
1664548789517,-0.8486328,0.3330078,0.25,1.15625,16.3125,5.65625,-67.625,-32.5,-88.5625
1664548789555,-1.0371094,0.34277344,0.16601562,-3.96875,14.90625,7.4375,0.0,0.0,0.0
1664548789594,-1.0244141,0.34960938,0.12597656,9.21875,8.6875,8.21875,0.0,0.0,0.0
1664548789655,-1.0087891,0.36816406,0.14550781,15.25,5.9375,7.8125,0.0,0.0,0.0
1664548789679,-0.93847656,0.29296875,0.18066406,25.9375,-0.0625,5.59375,0.0,0.0,0.0
1664548789728,-0.92285156,0.35253906,0.14941406,26.90625,-3.71875,5.96875,0.0,0.0,0.0
1664548789769,-0.9042969,0.34472656,0.15429688,25.09375,-6.40625,6.6875,0.0,0.0,0.0
1664548789803,-0.90234375,0.3671875,0.14648438,18.84375,-7.125,4.25,0.0,0.0,0.0
1664548789818,-0.94921875,0.35058594,0.16210938,9.75,-9.09375,4.25,0.0,0.0,0.0
1664548789850,-0.96191406,0.35839844,0.13671875,6.40625,-10.0,4.9375,0.0,0.0,0.0
1664548789874,-0.9794922,0.34375,0.15917969,10.90625,-16.28125,8.40625,0.0,0.0,0.0
1664548789949,-0.9404297,0.40527344,0.13671875,12.4375,-18.78125,7.375,0.0,0.0,0.0
1664548790010,-0.9199219,0.390625,0.14941406,4.9375,-22.8125,10.65625,-66.75,-31.3125,-89.125
1664548790041,-0.9091797,0.4267578,0.16113281,-8.0,-24.84375,10.125,0.0,0.0,0.0
1664548790079,-0.9082031,0.42089844,0.18164062,-15.8125,-29.71875,9.5625,0.0,0.0,0.0
1664548790122,-0.90722656,0.4345703,0.21582031,-16.4375,-34.78125,8.34375,0.0,0.0,0.0
1664548790160,-0.9033203,0.45507812,0.22265625,-20.625,-41.5,6.625,0.0,0.0,0.0
1664548790217,-1.0019531,0.5625,0.13867188,-20.6875,-55.28125,6.28125,0.0,0.0,0.0
1664548790264,-1.2431641,0.5830078,0.5625,8.78125,-94.28125,17.1875,0.0,0.0,0.0
1664548790281,-1.4541016,0.9550781,-0.01171875,-29.84375,-90.625,45.09375,0.0,0.0,0.0
1664548790308,-0.85253906,1.2412109,0.56152344,-119.6875,-111.5625,80.25,0.0,0.0,0.0
1664548790385,-0.9951172,0.76660156,0.49609375,-167.65625,-87.9375,132.1875,0.0,0.0,0.0
1664548790414,-1.0673828,-0.21191406,0.4013672,-134.71875,-91.96875,109.375,0.0,0.0,0.0
1664548790449,-0.6669922,-0.048828125,0.5048828,-57.4375,-103.4375,65.59375,0.0,0.0,0.0
1664548790511,-0.3154297,0.0390625,0.7548828,-22.09375,-81.78125,18.0625,0.0,0.0,0.0
1664548790529,-0.3154297,0.22851562,0.94140625,-38.65625,-48.53125,-20.09375,-37.625,-38.0625,-68.625
1664548790543,-0.41308594,0.1484375,1.1611328,-53.46875,-27.6875,-54.875,0.0,0.0,0.0
1664548790579,-0.2265625,0.16699219,1.0380859,-51.15625,-24.84375,-77.03125,0.0,0.0,0.0
1664548790584,-0.1640625,0.30859375,0.9482422,-41.15625,3.65625,-84.0625,0.0,0.0,0.0
1664548790602,-0.37597656,0.068359375,0.8017578,-40.59375,36.4375,-84.375,0.0,0.0,0.0
1664548790658,-0.4189453,0.13867188,0.9394531,-12.09375,39.6875,-91.625,0.0,0.0,0.0
1664548790682,-0.34375,0.28710938,0.8486328,25.03125,52.5,-75.53125,0.0,0.0,0.0
1664548790740,-0.5410156,0.3173828,0.86328125,30.75,69.65625,-56.40625,0.0,0.0,0.0
1664548790790,-0.33398438,0.24609375,0.67285156,29.0,97.34375,-45.5,0.0,0.0,0.0
1664548790799,-0.41015625,0.203125,0.9355469,41.6875,102.90625,-2.59375,0.0,0.0,0.0
1664548790832,-0.73339844,-0.041992188,0.8642578,56.875,75.8125,22.125,0.0,0.0,0.0
1664548790992,-0.8232422,0.10449219,0.8222656,64.03125,60.1875,20.1875,-55.8125,-38.0625,-75.0625
1664548790993,-0.61621094,0.45996094,0.56933594,59.5625,51.9375,38.5,0.0,0.0,0.0
1664548790994,-0.5205078,0.16210938,0.59765625,11.78125,103.78125,41.3125,0.0,0.0,0.0
1664548791014,-0.8955078,0.056640625,0.4609375,17.4375,105.21875,36.3125,0.0,0.0,0.0
1664548791035,-0.71191406,0.123046875,0.49023438,37.78125,94.375,43.5625,0.0,0.0,0.0
1664548791067,-0.58203125,0.12695312,0.3466797,29.03125,126.53125,37.46875,0.0,0.0,0.0
1664548791224,-0.8642578,0.15234375,0.4404297,24.96875,118.71875,31.96875,0.0,0.0,0.0
1664548791225,-0.6347656,0.23730469,0.25976562,40.15625,112.25,26.21875,0.0,0.0,0.0
1664548791229,-0.75683594,0.29296875,0.19433594,32.65625,112.5625,23.65625,0.0,0.0,0.0
1664548791271,-0.7421875,0.3310547,0.1484375,13.125,94.5625,13.90625,0.0,0.0,0.0
1664548791285,-0.7128906,0.3779297,0.078125,-2.8125,99.96875,17.875,0.0,0.0,0.0
1664548791306,-0.89941406,0.45507812,0.23730469,-24.0,47.5625,23.1875,0.0,0.0,0.0
1664548791367,-1.2587891,0.2548828,0.3125,-32.53125,3.78125,-7.40625,0.0,0.0,0.0
1664548791420,-0.9433594,0.2626953,-0.32421875,-24.1875,-14.875,-17.71875,0.0,0.0,0.0
1664548791445,-0.9433594,0.59375,-0.083984375,22.15625,-10.375,-2.21875,-72.875,-27.6875,-101.0
1664548791488,-0.9550781,0.50390625,0.07421875,22.28125,-7.1875,0.15625,0.0,0.0,0.0
1664548791518,-0.7871094,0.43359375,-0.23046875,4.5625,-2.5,0.59375,0.0,0.0,0.0
1664548791552,-0.86621094,0.44628906,-0.024414062,8.21875,-13.3125,0.71875,0.0,0.0,0.0
1664548791611,-0.7705078,0.3955078,0.05078125,-10.75,-19.9375,-2.34375,0.0,0.0,0.0
1664548791648,-0.86816406,0.40722656,0.059570312,-9.46875,-34.125,0.0,0.0,0.0,0.0
1664548791687,-1.0400391,0.4453125,0.16015625,-4.15625,-32.09375,-5.15625,0.0,0.0,0.0
1664548791829,-0.8808594,0.38476562,0.064453125,-19.0625,-48.53125,-10.5,0.0,0.0,0.0
1664548791831,-0.76953125,0.40429688,0.13574219,-11.34375,-77.375,0.84375,0.0,0.0,0.0
1664548791833,-0.6894531,0.43945312,0.12890625,-5.75,-101.375,7.375,0.0,0.0,0.0
1664548791860,-0.6894531,0.40429688,0.31835938,-3.84375,-79.65625,-1.125,0.0,0.0,0.0
1664548791886,-0.6347656,0.119140625,0.11230469,-21.0625,-52.1875,-16.9375,0.0,0.0,0.0
1664548791911,-0.3935547,0.13183594,0.26464844,-4.34375,-62.625,-15.59375,-66.625,-29.0625,-87.1875
1664548791982,-0.47753906,0.19140625,0.3251953,-26.96875,-41.5625,-8.0625,0.0,0.0,0.0
1664548792001,-0.46191406,0.24609375,0.40527344,-20.34375,-20.0625,0.0,0.0,0.0,0.0
1664548792026,-0.6894531,0.3310547,0.58203125,-41.875,-21.59375,3.15625,0.0,0.0,0.0
1664548792107,-0.7705078,0.16699219,0.375,-62.375,-11.90625,3.03125,0.0,0.0,0.0
1664548792136,-0.7421875,0.091796875,0.4716797,-2.09375,-31.375,-10.21875,0.0,0.0,0.0
1664548792192,-0.5859375,0.4169922,0.27929688,-6.0625,-23.78125,-23.21875,0.0,0.0,0.0
1664548792224,-0.5341797,0.30273438,-0.13671875,12.9375,15.3125,-20.59375,0.0,0.0,0.0
1664548792245,-0.5546875,0.25878906,-0.21386719,13.46875,41.75,-24.625,0.0,0.0,0.0
1664548792268,-0.19335938,0.1171875,-0.20996094,57.5,79.34375,-28.8125,0.0,0.0,0.0
1664548792417,-1.9863281,1.5576172,1.9931641,-71.65625,51.34375,-17.96875,0.0,0.0,0.0
1664548792419,-0.4501953,0.7832031,-1.2822266,-62.4375,-119.5625,-55.25,0.0,0.0,0.0
1664548792424,-1.9863281,-0.08691406,-0.7314453,0.71875,-7.875,-28.65625,0.0,0.0,0.0
1664548792465,-1.0039062,0.37402344,0.4423828,11.28125,56.40625,6.21875,-64.5,-40.625,-82.375
1664548792481,-0.94921875,0.07519531,0.3779297,30.09375,39.5625,22.09375,0.0,0.0,0.0
1664548792508,-0.76660156,0.13867188,0.5683594,66.40625,5.5,34.21875,0.0,0.0,0.0
1664548792711,-0.24414062,-0.043945312,0.62890625,-9.34375,32.65625,14.03125,0.0,0.0,0.0
1664548792713,-0.3173828,0.028320312,0.38085938,40.28125,25.46875,6.6875,0.0,0.0,0.0
1664548792716,-0.78027344,0.45507812,0.23730469,27.65625,-1.40625,9.03125,0.0,0.0,0.0
1664548792749,-1.1044922,0.69140625,0.17675781,8.96875,4.875,13.15625,0.0,0.0,0.0
1664548792767,-1.3828125,0.5908203,-0.0546875,-37.40625,23.3125,9.5,0.0,0.0,0.0
1664548792782,-1.2724609,0.36621094,0.032226562,-28.4375,27.15625,8.90625,0.0,0.0,0.0
1664548792824,-1.0683594,0.22363281,0.24707031,12.75,9.71875,16.71875,0.0,0.0,0.0
1664548792842,-0.78125,0.34375,0.30273438,29.59375,2.8125,21.15625,0.0,0.0,0.0
1664548792869,-0.57128906,0.32910156,0.32128906,25.4375,0.1875,13.78125,0.0,0.0,0.0
1664548792949,-0.64746094,0.3564453,0.27246094,13.1875,2.8125,5.125,-67.1875,-30.5625,-89.125
1664548792981,-0.8330078,0.51171875,0.17089844,-1.40625,4.21875,1.875,0.0,0.0,0.0
1664548793011,-0.9970703,0.5097656,0.140625,-2.6875,1.21875,1.03125,0.0,0.0,0.0
1664548793087,-1.015625,0.5205078,0.0859375,-3.25,5.1875,-3.875,0.0,0.0,0.0
1664548793100,-0.97265625,0.4560547,0.15820312,-4.71875,-1.59375,-2.9375,0.0,0.0,0.0
1664548793125,-0.9042969,0.35058594,0.24414062,-13.625,1.65625,-3.0,0.0,0.0,0.0
1664548793165,-0.86035156,0.265625,0.28320312,-5.1875,2.09375,-1.125,0.0,0.0,0.0
1664548793203,-0.85839844,0.2578125,0.2919922,8.21875,-3.34375,-1.1875,0.0,0.0,0.0
1664548793250,-0.8691406,0.32714844,0.22851562,18.65625,-5.3125,-1.0625,0.0,0.0,0.0
1664548793319,-0.9765625,0.37402344,0.15429688,27.09375,-9.9375,0.78125,0.0,0.0,0.0
1664548793349,-0.9326172,0.43359375,0.12109375,32.71875,-14.03125,-0.4375,0.0,0.0,0.0
1664548793365,-0.94628906,0.45214844,0.13183594,27.75,-20.125,0.46875,0.0,0.0,0.0
1664548793446,-0.92285156,0.4658203,0.1484375,21.40625,-22.8125,-0.0625,0.0,0.0,0.0
1664548793481,-0.9160156,0.4638672,0.18066406,11.78125,-25.625,1.3125,-65.375,-30.5625,-87.375
1664548793505,-0.87890625,0.4111328,0.16210938,2.5625,-25.125,-0.3125,0.0,0.0,0.0
1664548793575,-0.87597656,0.42285156,0.18945312,-3.90625,-34.1875,1.375,0.0,0.0,0.0
1664548793618,-0.9091797,0.47265625,0.20214844,-15.03125,-39.40625,2.375,0.0,0.0,0.0
1664548793639,-0.9160156,0.48242188,0.21679688,-24.3125,-42.59375,1.03125,0.0,0.0,0.0
1664548793701,-1.0195312,0.51464844,0.072265625,-25.8125,-55.09375,2.96875,0.0,0.0,0.0
1664548793703,-1.4550781,0.49121094,0.23242188,-24.0,-66.75,15.1875,0.0,0.0,0.0
1664548793743,-0.75683594,1.2382812,0.7128906,-39.0,-50.96875,26.28125,0.0,0.0,0.0
1664548793795,-0.9736328,0.6035156,0.7158203,-183.59375,-3.65625,21.09375,0.0,0.0,0.0
1664548793825,-1.0488281,0.24902344,0.40039062,-136.1875,-51.375,52.15625,0.0,0.0,0.0
1664548793864,-0.85253906,0.20117188,0.39257812,-64.46875,-94.0,42.34375,0.0,0.0,0.0
1664548793947,-0.9794922,0.16308594,0.3779297,-25.34375,-115.78125,46.0,0.0,0.0,0.0
1664548793975,-0.79785156,0.21777344,0.45117188,-24.84375,-103.09375,10.46875,-47.875,-37.1875,-71.125
1664548794014,-0.76660156,0.23828125,0.6464844,-20.9375,-83.4375,-12.21875,0.0,0.0,0.0
1664548794082,-0.6591797,0.15332031,0.69433594,-27.84375,-48.75,-49.28125,0.0,0.0,0.0
1664548794129,-0.7138672,0.28222656,1.0576172,-36.9375,-53.75,-68.5,0.0,0.0,0.0
1664548794160,-0.41210938,0.4580078,0.84765625,-68.0625,-35.8125,-91.5625,0.0,0.0,0.0
1664548794213,-0.11035156,0.18847656,0.9482422,-74.90625,25.03125,-95.65625,0.0,0.0,0.0
1664548794239,-0.5283203,0.09667969,0.6855469,-59.21875,36.5,-75.09375,0.0,0.0,0.0
1664548794273,-0.060546875,-0.0068359375,0.90527344,22.15625,59.15625,-78.09375,0.0,0.0,0.0
1664548794336,-0.06738281,-0.0029296875,0.9482422,40.15625,71.1875,-56.65625,0.0,0.0,0.0
1664548794376,-0.44726562,-0.051757812,0.9921875,56.75,59.28125,-34.8125,0.0,0.0,0.0
1664548794414,-0.53222656,0.19628906,0.9160156,64.9375,55.625,-46.71875,0.0,0.0,0.0
1664548794472,-0.49609375,0.2109375,0.6933594,61.75,56.84375,-26.375,0.0,0.0,0.0
1664548794491,-0.63964844,0.16015625,0.7421875,59.5625,68.375,-18.625,0.0,0.0,0.0
1664548794524,-0.9111328,0.21972656,0.70410156,51.75,59.8125,-4.03125,-54.875,-42.125,-73.25
1664548794607,-0.7841797,0.25976562,0.6035156,57.5625,47.4375,7.25,0.0,0.0,0.0
1664548794637,-0.6855469,0.25683594,0.51171875,38.25,50.0625,22.875,0.0,0.0,0.0
1664548794675,-0.75,0.265625,0.42382812,33.8125,45.90625,36.59375,0.0,0.0,0.0
1664548794746,-0.78808594,0.26953125,0.4580078,27.53125,45.125,43.25,0.0,0.0,0.0
1664548794773,-0.6464844,0.11230469,0.3466797,25.09375,46.15625,46.375,0.0,0.0,0.0
1664548794798,-0.5283203,0.12890625,0.2607422,34.71875,55.3125,44.65625,0.0,0.0,0.0
1664548794844,-0.7080078,0.13476562,0.3671875,24.84375,48.34375,39.71875,0.0,0.0,0.0
1664548794865,-0.921875,-0.028320312,0.41308594,29.96875,57.625,16.46875,0.0,0.0,0.0
1664548794891,-1.0996094,0.15136719,0.54589844,13.40625,49.6875,5.0625,0.0,0.0,0.0
1664548794943,-0.9638672,0.25683594,0.41992188,25.5625,31.8125,3.40625,0.0,0.0,0.0
1664548794990,-0.6669922,0.34472656,0.32617188,22.75,39.3125,5.21875,0.0,0.0,0.0
1664548794999,-0.8125,0.29296875,0.35351562,8.28125,59.6875,12.5625,-66.3125,-27.25,-88.875
1664548795046,-1.0419922,0.2265625,0.43945312,-3.96875,66.84375,11.40625,0.0,0.0,0.0
1664548795079,-0.9628906,0.29589844,0.3310547,-17.34375,59.6875,4.0625,0.0,0.0,0.0
1664548795116,-0.88671875,0.3330078,0.34960938,-14.34375,24.0625,6.625,0.0,0.0,0.0
1664548795184,-0.8076172,0.31445312,0.21679688,-8.84375,35.71875,7.3125,0.0,0.0,0.0
1664548795227,-0.92285156,0.3671875,0.17480469,-6.21875,34.25,3.34375,0.0,0.0,0.0
1664548795242,-0.95703125,0.35058594,0.21289062,-3.78125,28.75,2.65625,0.0,0.0,0.0
1664548795333,-0.87597656,0.5332031,0.08203125,-13.96875,23.875,0.0,0.0,0.0,0.0
1664548795371,-0.8857422,0.4169922,0.09863281,3.46875,27.21875,-0.375,0.0,0.0,0.0
1664548795407,-0.80371094,0.4326172,-0.068359375,-6.28125,38.46875,-3.1875,0.0,0.0,0.0
1664548795455,-0.8125,0.42773438,-0.08984375,11.21875,35.53125,4.0,0.0,0.0,0.0
1664548795484,-0.78222656,0.43652344,-0.03125,7.3125,42.0625,-1.53125,0.0,0.0,0.0
1664548795509,-0.97265625,0.43164062,0.057617188,-2.875,31.375,-1.53125,0.0,0.0,0.0
1664548795569,-0.9892578,0.3984375,0.040039062,-2.3125,18.0,-0.75,-72.4375,-28.1875,-101.3125
1664548795591,-0.9375,0.49316406,0.025390625,-10.9375,0.0,6.03125,0.0,0.0,0.0
1664548795637,-0.9511719,0.36523438,-0.037109375,-3.4375,-4.25,16.40625,0.0,0.0,0.0
1664548795723,-1.0029297,0.34765625,-0.048828125,15.75,-0.40625,10.84375,0.0,0.0,0.0
1664548795724,-0.92089844,0.359375,0.00390625,29.46875,-6.09375,6.5625,0.0,0.0,0.0
1664548795760,-0.9169922,0.43847656,0.07324219,12.5,-11.90625,5.0625,0.0,0.0,0.0
1664548795820,-0.8876953,0.37890625,0.2890625,-19.53125,-29.15625,-4.34375,0.0,0.0,0.0
1664548795837,-0.8105469,0.25390625,0.28027344,-42.125,-76.40625,-13.1875,0.0,0.0,0.0
1664548795881,-0.6982422,0.2421875,0.060546875,-67.75,-103.75,-22.40625,0.0,0.0,0.0
1664548795935,-0.6855469,0.3125,-0.040039062,-64.28125,-88.1875,-18.8125,0.0,0.0,0.0
1664548795966,-0.6298828,0.34375,0.005859375,-30.15625,-72.875,-12.21875,0.0,0.0,0.0
1664548795998,-0.6464844,0.20703125,0.26660156,-17.84375,-58.34375,-8.1875,0.0,0.0,0.0
1664548796062,-0.6171875,0.5546875,0.6542969,-9.53125,-50.59375,-6.53125,-65.375,-28.4375,-86.0
1664548796083,-0.6347656,0.36914062,0.7519531,-79.46875,-28.1875,-4.84375,0.0,0.0,0.0
1664548796111,-0.6269531,0.10449219,0.56152344,-67.28125,-27.75,-5.625,0.0,0.0,0.0
1664548796153,-0.7607422,-0.16894531,0.2841797,-16.125,-31.65625,10.59375,0.0,0.0,0.0
1664548796168,-0.5185547,0.22851562,0.40820312,13.125,-33.0625,17.625,0.0,0.0,0.0
1664548796202,-0.71777344,0.29296875,0.34375,5.71875,-20.75,4.625,0.0,0.0,0.0
1664548796275,-0.68847656,0.24316406,0.037109375,-0.90625,10.25,-13.75,0.0,0.0,0.0
1664548796275,-0.5058594,0.44628906,0.099609375,7.1875,34.8125,-24.84375,0.0,0.0,0.0
1664548796299,-0.3408203,0.16113281,-0.017578125,-4.53125,59.5625,-16.3125,0.0,0.0,0.0
1664548796352,-0.57421875,0.50683594,0.32910156,31.0,75.9375,-11.78125,0.0,0.0,0.0
1664548796367,-1.9863281,0.8095703,1.9931641,-37.375,-7.125,-44.03125,0.0,0.0,0.0
1664548796396,0.3623047,1.7617188,1.25,-11.1875,-141.53125,-25.34375,0.0,0.0,0.0
1664548796426,-1.9863281,0.41992188,-0.39941406,100.59375,24.59375,-10.09375,0.0,0.0,0.0
1664548796437,-0.85253906,0.29101562,0.625,28.5,46.6875,-2.9375,-63.75,-39.25,-80.75
1664548796468,-1.1259766,0.07324219,0.13867188,47.96875,35.34375,13.71875,0.0,0.0,0.0
1664548796536,-0.7246094,0.24511719,0.5371094,66.78125,9.40625,13.90625,0.0,0.0,0.0
1664548796559,-0.17285156,0.19238281,0.57714844,-3.84375,20.15625,5.21875,0.0,0.0,0.0
1664548796587,-0.52734375,0.08300781,0.31835938,-17.84375,33.5625,1.625,0.0,0.0,0.0
1664548796669,-0.8964844,0.23632812,0.2998047,-25.75,18.9375,3.90625,0.0,0.0,0.0
1664548796708,-1.1396484,0.40625,0.21484375,-20.28125,14.96875,5.21875,0.0,0.0,0.0
1664548796732,-1.2734375,0.5732422,0.020507812,-11.71875,13.4375,7.5,0.0,0.0,0.0
1664548796791,-1.1767578,0.3125,0.107421875,-6.96875,9.21875,6.9375,0.0,0.0,0.0
1664548796803,-1.0166016,0.26953125,0.203125,16.09375,-0.1875,4.9375,0.0,0.0,0.0
1664548796830,-0.77734375,0.33398438,0.3173828,24.78125,-3.46875,5.1875,0.0,0.0,0.0
1664548796891,-0.7138672,0.27441406,0.38964844,5.375,0.125,2.96875,0.0,0.0,0.0
1664548796935,-0.7548828,0.18847656,0.33203125,0.96875,2.5625,-0.8125,-69.125,-36.4375,-87.1875
1664548796946,-0.95703125,0.32714844,0.26464844,4.15625,1.28125,0.71875,0.0,0.0,0.0
1664548797008,-1.0195312,0.32226562,0.22363281,6.53125,2.3125,-0.1875,0.0,0.0,0.0
1664548797075,-1.09375,0.28027344,0.11425781,14.875,-4.3125,1.09375,0.0,0.0,0.0
1664548797113,-0.99609375,0.21484375,0.22851562,32.65625,-15.25,3.28125,0.0,0.0,0.0
1664548797164,-0.95703125,0.2705078,0.21386719,41.25,-23.25,5.21875,0.0,0.0,0.0
1664548797179,-0.86816406,0.33789062,0.20703125,37.53125,-22.09375,7.75,0.0,0.0,0.0
1664548797205,-0.890625,0.375,0.19726562,19.46875,-24.09375,12.5,0.0,0.0,0.0
1664548797248,-0.90625,0.45507812,0.19433594,7.1875,-25.4375,12.0625,0.0,0.0,0.0
1664548797289,-0.9316406,0.43554688,0.21582031,-9.90625,-28.875,11.65625,0.0,0.0,0.0
1664548797330,-0.9658203,0.40527344,0.2265625,-14.09375,-34.46875,10.25,0.0,0.0,0.0
1664548797367,-0.9082031,0.45996094,0.27148438,-15.375,-44.5,8.46875,0.0,0.0,0.0
1664548797414,-0.9433594,0.43359375,0.19921875,-20.9375,-54.0625,8.78125,0.0,0.0,0.0
1664548797453,-1.140625,0.61816406,0.19628906,-4.46875,-92.21875,10.0625,-60.625,-32.1875,-81.8125
1664548797489,-1.234375,0.66015625,0.26953125,-29.4375,-101.75,20.1875,0.0,0.0,0.0
1664548797533,-1.1103516,0.9501953,0.6230469,-125.25,-78.25,18.78125,0.0,0.0,0.0
1664548797568,-1.0322266,0.2939453,0.6152344,-163.6875,-66.8125,25.9375,0.0,0.0,0.0
1664548797642,-1.015625,0.17089844,0.7001953,-74.21875,-106.8125,57.59375,0.0,0.0,0.0
1664548797689,-1.1259766,0.013671875,0.8466797,-46.6875,-145.1875,50.21875,0.0,0.0,0.0
1664548797726,-0.76660156,0.0859375,0.75390625,-15.09375,-131.875,17.875,0.0,0.0,0.0
1664548797784,-0.26757812,0.390625,0.765625,-19.0625,-106.6875,-27.71875,0.0,0.0,0.0
1664548797817,0.005859375,0.11425781,1.0439453,-63.46875,-25.375,-51.21875,0.0,0.0,0.0
1664548797861,-0.32714844,0.18945312,1.1044922,-85.03125,10.5625,-60.625,0.0,0.0,0.0
1664548797921,-0.12890625,0.3154297,0.9589844,-67.21875,18.0,-47.1875,0.0,0.0,0.0
1664548797942,-0.15234375,0.037109375,0.77441406,-42.4375,35.59375,-23.28125,0.0,0.0,0.0
1664548797963,-0.09863281,0.0546875,0.8310547,-8.5,62.8125,-12.40625,-38.6875,-48.5625,-68.0
1664548798034,-0.27734375,-0.016601562,1.0332031,0.25,82.09375,-8.9375,0.0,0.0,0.0
1664548798044,-0.30664062,-0.19140625,1.0166016,11.65625,73.125,-2.59375,0.0,0.0,0.0
1664548798072,-0.40429688,-0.1015625,0.81152344,38.09375,60.5625,0.84375,0.0,0.0,0.0
1664548798112,-0.32617188,0.11328125,0.7871094,54.125,42.375,18.53125,0.0,0.0,0.0
1664548798153,-0.6855469,0.19042969,0.83691406,29.59375,51.15625,30.625,0.0,0.0,0.0
1664548798183,-0.6425781,0.15722656,0.64746094,22.09375,41.625,36.71875,0.0,0.0,0.0
1664548798227,-0.6748047,-0.103515625,0.64746094,34.65625,59.46875,43.6875,0.0,0.0,0.0
1664548798262,-0.7734375,0.13476562,0.44433594,50.90625,61.65625,35.375,0.0,0.0,0.0
1664548798300,-0.7597656,0.203125,0.71777344,77.875,61.59375,41.78125,0.0,0.0,0.0
1664548798370,-0.8564453,0.29101562,0.45996094,25.6875,105.125,25.4375,0.0,0.0,0.0
1664548798394,-0.89746094,0.32617188,0.40820312,49.75,106.15625,36.4375,0.0,0.0,0.0
1664548798421,-0.8408203,0.20019531,0.29785156,52.3125,110.78125,38.25,0.0,0.0,0.0
1664548798456,-0.9707031,0.26171875,0.28320312,34.125,143.1875,12.625,-65.375,-32.6875,-84.625
1664548798476,-0.59765625,0.2763672,0.2919922,56.6875,117.3125,-6.78125,0.0,0.0,0.0
1664548798517,-0.5966797,0.24609375,0.26367188,33.3125,102.0,11.28125,0.0,0.0,0.0
1664548798567,-0.7207031,0.24609375,0.22363281,24.96875,81.84375,17.1875,0.0,0.0,0.0
1664548798627,-0.8496094,0.22363281,0.12109375,31.5,58.25,10.96875,0.0,0.0,0.0
1664548798680,-0.89941406,0.3232422,0.11035156,19.09375,33.8125,1.5625,0.0,0.0,0.0
1664548798739,-0.96777344,0.4345703,0.048828125,8.90625,12.15625,-6.4375,0.0,0.0,0.0
1664548798766,-1.0771484,0.5058594,0.07519531,27.03125,-14.75,-4.53125,0.0,0.0,0.0
1664548798786,-1.0732422,0.43066406,-0.021484375,12.9375,-25.9375,-4.21875,0.0,0.0,0.0
1664548798830,-0.890625,0.4423828,-0.07519531,23.0625,-20.75,-2.34375,0.0,0.0,0.0
1664548798840,-0.8222656,0.45117188,-0.11230469,24.78125,2.5625,-0.125,0.0,0.0,0.0
1664548798874,-0.828125,0.421875,-0.06542969,31.625,13.0,7.6875,0.0,0.0,0.0
1664548798933,-0.83691406,0.46777344,-0.041015625,22.625,9.59375,5.71875,-71.5625,-28.0,-101.125
1664548798963,-0.875,0.44921875,-0.00390625,3.53125,6.15625,-0.5,0.0,0.0,0.0
1664548799007,-0.9326172,0.42382812,0.0126953125,-6.125,0.125,-1.65625,0.0,0.0,0.0
1664548799116,-0.92578125,0.38085938,0.02734375,-4.21875,-1.15625,-1.46875,0.0,0.0,0.0
1664548799151,-0.92871094,0.4248047,-9.765625E-4,-2.15625,1.28125,-2.09375,0.0,0.0,0.0
1664548799182,-0.97265625,0.41015625,0.00390625,-0.5,7.5,-0.3125,0.0,0.0,0.0
1664548799235,-0.9248047,0.390625,0.03125,1.53125,4.65625,0.65625,0.0,0.0,0.0
1664548799261,-0.92578125,0.39746094,0.028320312,-6.46875,-2.5,2.0625,0.0,0.0,0.0
1664548799292,-0.9277344,0.41308594,0.103515625,-10.1875,-7.875,2.5,0.0,0.0,0.0
1664548799355,-0.85839844,0.36914062,0.041015625,-11.0,-18.125,6.28125,0.0,0.0,0.0
1664548799367,-0.8876953,0.35742188,0.15429688,-18.8125,-31.78125,5.71875,0.0,0.0,0.0
1664548799406,-0.79003906,0.3154297,0.07324219,-20.75,-58.90625,3.84375,0.0,0.0,0.0
1664548799441,-0.8027344,0.2529297,0.27539062,-19.125,-87.75,3.9375,0.0,0.0,0.0
1664548799471,-0.67089844,0.38867188,0.23242188,-28.5,-108.625,0.59375,-72.0,-26.1875,-94.125
1664548799494,-0.71191406,0.27148438,0.24023438,-47.0625,-81.96875,0.21875,0.0,0.0,0.0
1664548799556,-0.75390625,0.23339844,0.09277344,-18.625,-59.3125,-6.5,0.0,0.0,0.0
1664548799598,-0.78808594,0.3671875,0.38671875,11.78125,-63.65625,-6.90625,0.0,0.0,0.0
1664548799614,-0.7265625,0.54296875,0.28515625,-10.9375,-49.90625,1.28125,0.0,0.0,0.0
1664548799658,-0.66015625,0.31445312,0.5419922,-2.375,-44.25,4.625,0.0,0.0,0.0
1664548799679,-0.67089844,0.32617188,0.6044922,-40.03125,-37.90625,-4.09375,0.0,0.0,0.0
1664548799711,-0.50097656,-0.01953125,0.3955078,-5.875,-23.6875,-23.28125,0.0,0.0,0.0
1664548799794,-0.625,0.3857422,0.31835938,27.65625,-40.75,-24.96875,0.0,0.0,0.0
1664548799822,-0.5996094,0.46484375,0.34179688,17.375,-30.6875,-2.40625,0.0,0.0,0.0
1664548799852,-0.65527344,0.3017578,0.2861328,7.6875,-9.09375,2.71875,0.0,0.0,0.0
1664548799893,-0.5878906,0.30371094,0.12402344,16.53125,11.46875,-9.28125,0.0,0.0,0.0
1664548799934,-0.45507812,0.21484375,0.083984375,2.4375,58.0625,-15.875,-59.375,-32.0625,-79.875
1664548799955,-0.18652344,0.0126953125,0.03125,1.03125,89.90625,-23.34375,0.0,0.0,0.0
1664548800019,-1.0693359,1.0234375,1.7324219,-31.75,74.46875,-3.75,0.0,0.0,0.0
1664548800044,-1.9863281,1.6181641,-1.2744141,-94.71875,-35.75,9.5625,0.0,0.0,0.0
1664548800089,-1.9863281,-0.25976562,-0.22070312,-65.625,-36.75,-16.25,0.0,0.0,0.0
1664548800135,-1.4433594,1.2685547,-0.10839844,64.6875,36.5,7.5,0.0,0.0,0.0
1664548800168,-0.8417969,0.18359375,0.3828125,15.9375,68.625,5.90625,0.0,0.0,0.0
1664548800203,-0.95703125,0.3154297,0.25585938,34.84375,44.0625,8.46875,0.0,0.0,0.0
1664548800261,-0.5078125,0.18066406,0.5546875,44.625,8.78125,10.1875,0.0,0.0,0.0
1664548800292,-0.29785156,0.17675781,0.42578125,14.28125,3.59375,7.75,0.0,0.0,0.0
1664548800342,-0.56640625,0.3408203,0.34277344,-13.0625,16.0,8.34375,0.0,0.0,0.0
1664548800402,-1.0361328,0.37402344,0.30664062,-26.375,13.4375,7.8125,0.0,0.0,0.0
1664548800429,-1.1982422,0.57910156,0.16699219,-11.34375,3.59375,5.96875,0.0,0.0,0.0
1664548800452,-1.1826172,0.5175781,0.140625,0.84375,-0.90625,7.96875,-65.5625,-32.8125,-85.125
1664548800492,-1.0722656,0.46777344,0.17578125,-0.5625,3.375,6.15625,0.0,0.0,0.0
1664548800521,-0.8964844,0.38964844,0.26464844,12.03125,-0.125,3.15625,0.0,0.0,0.0
1664548800549,-0.72753906,0.3720703,0.3486328,13.46875,-4.4375,2.96875,0.0,0.0,0.0
1664548800622,-0.65527344,0.30078125,0.4189453,0.25,-6.03125,3.03125,0.0,0.0,0.0
1664548800664,-0.7626953,0.36621094,0.3310547,-7.5,-1.8125,0.09375,0.0,0.0,0.0
1664548800692,-0.9277344,0.41601562,0.27539062,-10.375,-2.75,0.53125,0.0,0.0,0.0
1664548800735,-1.0263672,0.38085938,0.24023438,-3.53125,-8.84375,0.96875,0.0,0.0,0.0
1664548800762,-0.98828125,0.44726562,0.21679688,7.875,-12.6875,1.21875,0.0,0.0,0.0
1664548800802,-0.8955078,0.40527344,0.296875,6.28125,-16.40625,1.15625,0.0,0.0,0.0
1664548800898,-0.8496094,0.36035156,0.29101562,9.875,-22.21875,0.03125,0.0,0.0,0.0
1664548800933,-0.8261719,0.39453125,0.33789062,11.03125,-29.21875,0.28125,0.0,0.0,0.0
1664548800970,-0.85253906,0.40527344,0.2939453,6.21875,-32.71875,1.03125,-61.5,-32.0625,-81.9375
1664548801024,-0.90625,0.4638672,0.2783203,4.09375,-39.78125,0.0,0.0,0.0,0.0
1664548801046,-0.86621094,0.4892578,0.31835938,-1.59375,-45.28125,-1.90625,0.0,0.0,0.0
1664548801089,-0.8847656,0.37695312,0.33398438,-8.3125,-52.90625,-1.65625,0.0,0.0,0.0
1664548801160,-0.8486328,0.4189453,0.390625,-0.0625,-60.90625,0.28125,0.0,0.0,0.0
1664548801205,-0.8486328,0.42578125,0.4140625,-1.65625,-73.40625,2.96875,0.0,0.0,0.0
1664548801231,-0.9140625,0.6044922,0.43359375,-13.5,-82.375,3.78125,0.0,0.0,0.0
1664548801288,-0.88378906,0.6044922,0.5498047,-48.09375,-65.71875,6.09375,0.0,0.0,0.0
1664548801304,-1.1464844,0.41992188,0.6699219,-54.03125,-88.3125,7.625,0.0,0.0,0.0
1664548801320,-1.0039062,0.6230469,0.6953125,-49.03125,-127.6875,-1.65625,0.0,0.0,0.0
1664548801374,-0.78125,0.57910156,0.76464844,-75.875,-117.1875,8.65625,0.0,0.0,0.0
1664548801375,-0.7421875,0.13476562,1.0576172,-92.90625,-104.71875,16.03125,0.0,0.0,0.0
1664548801411,-0.55859375,-0.030273438,1.1533203,-56.84375,-107.21875,8.46875,0.0,0.0,0.0
1664548801482,-0.2529297,0.23046875,1.1083984,-44.125,-81.96875,8.78125,-37.375,-39.4375,-67.25
1664548801519,-0.17773438,0.34960938,0.9746094,-55.96875,-38.3125,-8.5,0.0,0.0,0.0
1664548801530,-0.19335938,0.083984375,1.0996094,-59.6875,-13.53125,-4.15625,0.0,0.0,0.0
1664548801567,-0.2578125,0.20703125,0.8310547,-46.28125,6.28125,-4.78125,0.0,0.0,0.0
1664548801597,-0.064453125,0.0859375,0.8496094,-28.15625,32.78125,-0.8125,0.0,0.0,0.0
1664548801628,-0.171875,0.1015625,0.7265625,-15.625,60.0625,1.21875,0.0,0.0,0.0
1664548801700,-0.20410156,0.07421875,0.9511719,-11.84375,69.78125,8.53125,0.0,0.0,0.0
1664548801727,-0.3046875,-0.14648438,0.85253906,3.71875,79.09375,8.65625,0.0,0.0,0.0
1664548801783,-0.19140625,-0.16992188,0.9121094,10.90625,97.0625,-0.0625,0.0,0.0,0.0
1664548801836,-0.3798828,0.14550781,0.98339844,35.21875,77.28125,5.90625,0.0,0.0,0.0
1664548801857,-0.40820312,0.013671875,0.6923828,28.25,74.84375,22.125,0.0,0.0,0.0
1664548801878,-0.6435547,0.09082031,0.71191406,37.34375,50.25,33.96875,0.0,0.0,0.0
1664548801927,-0.4951172,0.18164062,0.6875,39.4375,55.3125,39.0,-49.0625,-43.3125,-71.75
1664548801972,-0.7128906,0.23730469,0.6044922,38.875,55.78125,51.0,0.0,0.0,0.0
1664548801999,-0.7207031,0.044921875,0.6611328,20.25,82.84375,47.28125,0.0,0.0,0.0
1664548802067,-1.0166016,0.0859375,0.578125,5.90625,108.96875,22.3125,0.0,0.0,0.0
1664548802115,-0.7373047,0.12988281,0.6171875,23.0,108.15625,13.09375,0.0,0.0,0.0
1664548802142,-0.87890625,0.2939453,0.24902344,19.03125,122.5,16.78125,0.0,0.0,0.0
1664548802222,-0.7783203,0.35058594,0.6279297,73.25,58.125,22.5,0.0,0.0,0.0
1664548802258,-0.8691406,0.36914062,0.5048828,47.0,41.375,27.09375,0.0,0.0,0.0
1664548802273,-0.57910156,0.4140625,0.43066406,17.625,39.25,30.4375,0.0,0.0,0.0
1664548802342,-0.6845703,0.20117188,0.32226562,-2.09375,42.375,31.59375,0.0,0.0,0.0
1664548802353,-0.8457031,0.19238281,0.19433594,24.59375,5.125,18.1875,0.0,0.0,0.0
1664548802399,-0.71777344,0.2685547,0.2578125,28.8125,6.46875,10.46875,0.0,0.0,0.0
1664548802447,-0.7265625,0.5107422,0.2109375,24.84375,17.09375,6.46875,0.0,0.0,0.0
1664548802478,-0.6230469,0.56152344,0.22949219,28.4375,22.40625,7.96875,-66.75,-27.4375,-88.6875
1664548802508,-0.8173828,0.55566406,0.20703125,10.625,27.15625,16.65625,0.0,0.0,0.0
1664548802563,-1.0302734,0.5419922,0.23828125,4.875,35.78125,13.09375,0.0,0.0,0.0
1664548802601,-0.9765625,0.421875,0.27441406,-19.65625,38.59375,-3.96875,0.0,0.0,0.0
1664548802617,-0.84765625,0.3935547,0.18359375,-2.875,18.6875,-5.875,0.0,0.0,0.0
1664548802647,-0.8564453,0.47851562,0.22363281,2.4375,2.75,-0.4375,0.0,0.0,0.0
1664548802701,-0.7998047,0.47851562,0.16210938,7.0,-1.46875,3.40625,0.0,0.0,0.0
1664548802749,-0.8339844,0.47460938,0.15039062,4.4375,0.875,3.9375,0.0,0.0,0.0
1664548802815,-0.86816406,0.4345703,0.15234375,5.5625,19.0625,0.15625,0.0,0.0,0.0
1664548802830,-0.9248047,0.49414062,0.20117188,6.90625,18.5,-2.46875,0.0,0.0,0.0
1664548802848,-0.8876953,0.46191406,0.19140625,10.0,27.90625,-1.46875,0.0,0.0,0.0
1664548802894,-0.9189453,0.4453125,0.1875,8.59375,18.6875,0.21875,0.0,0.0,0.0
1664548802931,-0.91503906,0.40722656,0.21875,12.8125,2.875,1.625,-72.125,-27.6875,-94.5625
1664548802960,-0.8671875,0.42871094,0.19042969,9.875,-4.09375,-1.96875,0.0,0.0,0.0
1664548803035,-0.8388672,0.40234375,0.15917969,14.59375,-9.625,-2.03125,0.0,0.0,0.0
1664548803056,-0.83496094,0.42773438,0.140625,10.125,-10.5,-1.96875,0.0,0.0,0.0
1664548803078,-0.84277344,0.484375,0.25390625,-3.84375,-19.65625,-1.1875,0.0,0.0,0.0
1664548803127,-0.9091797,0.51953125,0.20410156,-2.3125,-37.34375,8.28125,0.0,0.0,0.0
1664548803186,-0.7998047,0.40820312,0.24609375,4.875,-84.71875,35.09375,0.0,0.0,0.0
1664548803248,-0.7919922,0.5175781,0.21972656,5.125,-103.3125,26.84375,0.0,0.0,0.0
1664548803316,-0.5986328,0.2626953,0.20898438,0.84375,-78.84375,22.6875,0.0,0.0,0.0
1664548803351,-0.58691406,0.34277344,0.2734375,-19.59375,-60.34375,-2.21875,0.0,0.0,0.0
1664548803389,-0.6347656,0.5341797,0.5361328,-26.5,-73.78125,-8.75,0.0,0.0,0.0
1664548803435,-0.6669922,0.4892578,0.4345703,-56.09375,-64.15625,-15.09375,0.0,0.0,0.0
1664548803457,-0.75878906,0.21875,0.4267578,-48.90625,-57.78125,-12.53125,0.0,0.0,0.0
1664548803504,-0.7685547,0.28515625,0.5419922,-17.53125,-73.53125,-8.4375,-57.4375,-29.6875,-79.125
1664548803585,-0.7871094,0.5205078,0.55566406,-8.6875,-68.34375,-11.5,0.0,0.0,0.0
1664548803613,-0.609375,0.2763672,0.59375,-8.5,-49.90625,-5.375,0.0,0.0,0.0
1664548803646,-0.6777344,0.4375,0.7001953,-18.3125,-47.71875,-16.125,0.0,0.0,0.0
1664548803702,-0.3564453,0.24902344,0.7138672,-8.71875,-23.78125,-21.0,0.0,0.0,0.0
1664548803736,-0.49609375,0.2763672,0.6230469,-8.0,-26.53125,-14.40625,0.0,0.0,0.0
1664548803752,-0.31835938,0.19238281,0.54785156,-14.40625,-8.34375,-10.34375,0.0,0.0,0.0
1664548803792,-0.41308594,0.13574219,0.484375,5.3125,2.25,-15.21875,0.0,0.0,0.0
1664548803806,-0.51953125,0.38671875,0.53808594,11.03125,15.6875,-7.21875,0.0,0.0,0.0
1664548803838,-0.6152344,0.46875,0.4189453,0.125,33.5625,-11.71875,0.0,0.0,0.0
1664548803901,-0.33984375,0.05078125,0.18164062,-28.25,61.09375,-41.9375,0.0,0.0,0.0
1664548803921,-0.28515625,-0.08496094,-0.017578125,13.71875,72.6875,-28.8125,0.0,0.0,0.0
1664548803933,-1.8349609,0.96484375,1.6054688,23.0,36.3125,2.5625,-58.375,-34.75,-75.8125
1664548804004,-1.9863281,2.015625,-0.6376953,-93.28125,-77.9375,-7.09375,0.0,0.0,0.0
1664548804041,-1.9863281,0.23046875,-0.37597656,11.71875,2.21875,-39.9375,0.0,0.0,0.0
1664548804096,-1.2363281,0.6298828,0.60253906,16.90625,46.75,12.375,0.0,0.0,0.0
1664548804184,-0.6669922,0.25195312,0.7607422,45.59375,26.0625,5.40625,0.0,0.0,0.0
1664548804215,-0.32910156,-0.26367188,0.76953125,14.65625,34.5,15.0,0.0,0.0,0.0
1664548804235,0.08300781,-0.041992188,0.7636719,35.5625,20.875,-3.5,0.0,0.0,0.0
1664548804286,-0.17675781,0.328125,0.45117188,19.71875,32.65625,-2.28125,0.0,0.0,0.0
1664548804317,-0.82421875,0.4580078,0.4423828,-15.09375,26.5625,9.875,0.0,0.0,0.0
1664548804371,-1.2763672,0.6826172,0.28125,-24.65625,12.40625,14.5625,0.0,0.0,0.0
1664548804434,-1.2392578,0.5498047,0.1484375,-10.875,14.03125,-1.65625,0.0,0.0,0.0
1664548804482,-1.2470703,0.5683594,0.13574219,-2.3125,3.3125,0.09375,0.0,0.0,0.0
1664548804521,-0.86328125,0.40820312,0.4375,0.25,-0.25,-0.875,0.0,0.0,0.0
1664548804565,-0.70214844,0.31054688,0.53027344,-1.96875,-0.53125,-4.15625,-59.25,-35.375,-78.625
1664548804605,-0.5703125,0.2705078,0.6142578,-4.71875,-6.15625,-5.03125,0.0,0.0,0.0
1664548804635,-0.55859375,0.234375,0.6074219,-9.96875,-5.0625,-5.875,0.0,0.0,0.0
1664548804645,-0.828125,0.28808594,0.49316406,-14.90625,-2.5625,-3.125,0.0,0.0,0.0
1664548804663,-0.97558594,0.34277344,0.43359375,-4.46875,-10.125,-1.1875,0.0,0.0,0.0
1664548804695,-0.99609375,0.4189453,0.33007812,2.5625,-13.1875,-3.0,0.0,0.0,0.0
1664548804763,-0.9160156,0.3408203,0.37597656,-3.125,-16.78125,-3.5625,0.0,0.0,0.0
1664548804798,-0.8388672,0.265625,0.45898438,3.09375,-27.53125,-1.84375,0.0,0.0,0.0
1664548804842,-0.7363281,0.32617188,0.54785156,9.03125,-31.375,-2.21875,0.0,0.0,0.0
1664548804906,-0.73535156,0.33203125,0.57128906,7.5,-33.625,-0.8125,0.0,0.0,0.0
1664548804921,-0.7373047,0.37597656,0.5048828,2.6875,-36.125,-2.21875,0.0,0.0,0.0
1664548804951,-0.7988281,0.38964844,0.5341797,-5.3125,-38.03125,-2.15625,0.0,0.0,0.0
1664548805020,-0.859375,0.3671875,0.546875,-6.28125,-40.15625,-2.9375,-53.875,-36.125,-73.25
1664548805055,-0.890625,0.4560547,0.51953125,5.0625,-47.0,-2.03125,0.0,0.0,0.0
1664548805074,-0.8964844,0.5263672,0.6464844,4.3125,-59.125,0.40625,0.0,0.0,0.0
1664548805135,-0.9951172,0.40625,0.5986328,-36.75,-57.78125,2.375,0.0,0.0,0.0
1664548805147,-0.9003906,0.47558594,0.71875,-73.25,-59.9375,-11.71875,0.0,0.0,0.0
1664548805170,-1.0507812,0.3095703,0.8642578,-90.71875,-86.65625,-25.15625,0.0,0.0,0.0
1664548805234,-0.9785156,0.3017578,0.8486328,-75.25,-110.40625,-35.96875,0.0,0.0,0.0
1664548805261,-0.79296875,0.3046875,0.86035156,-56.09375,-126.09375,-21.125,0.0,0.0,0.0
1664548805294,-0.38476562,0.1328125,0.8251953,-44.9375,-104.4375,-7.03125,0.0,0.0,0.0
1664548805347,-0.20410156,-0.09472656,1.0351562,-38.75,-57.125,-10.5625,0.0,0.0,0.0
1664548805396,-0.14453125,-0.060546875,1.0625,-45.90625,3.4375,-24.90625,0.0,0.0,0.0
1664548805430,-0.13183594,0.13769531,1.0419922,-42.5625,27.40625,-17.71875,0.0,0.0,0.0
1664548805483,-0.23535156,-0.059570312,0.94628906,-19.53125,14.28125,5.90625,0.0,0.0,0.0
1664548805521,0.052734375,-0.17382812,0.7841797,17.6875,32.65625,13.46875,-33.4375,-50.0625,-67.5625
1664548805556,-0.23242188,0.07519531,0.95996094,1.65625,47.625,14.75,0.0,0.0,0.0
1664548805640,-0.28320312,-0.0087890625,0.85546875,14.9375,67.75,4.625,0.0,0.0,0.0
1664548805659,-0.2265625,-0.046875,0.93847656,13.59375,73.0625,1.28125,0.0,0.0,0.0
1664548805693,-0.34277344,-0.16796875,0.72558594,24.34375,84.65625,-4.46875,0.0,0.0,0.0
1664548805761,-0.35839844,0.111328125,0.88964844,55.96875,74.96875,-2.9375,0.0,0.0,0.0
1664548805781,-0.49316406,0.09667969,0.88671875,58.40625,64.28125,13.46875,0.0,0.0,0.0
1664548805813,-0.7558594,0.11035156,0.7451172,55.0625,56.71875,17.9375,0.0,0.0,0.0
1664548805868,-0.60253906,0.21679688,0.6982422,56.6875,51.65625,23.25,0.0,0.0,0.0
1664548805884,-0.625,0.34375,0.66503906,40.28125,55.125,35.625,0.0,0.0,0.0
1664548805921,-0.81933594,0.13964844,0.640625,17.03125,78.375,40.21875,0.0,0.0,0.0
1664548806013,-0.9169922,0.22363281,0.5810547,24.21875,71.125,30.8125,0.0,0.0,0.0
1664548806030,-0.7753906,0.31445312,0.49609375,24.46875,78.25,29.40625,-58.375,-35.1875,-74.75
1664548806059,-0.85058594,0.2919922,0.41796875,18.0625,87.15625,32.03125,0.0,0.0,0.0
1664548806140,-0.8046875,0.23339844,0.3828125,25.5625,92.15625,22.25,0.0,0.0,0.0
1664548806174,-0.6611328,0.16796875,0.3232422,35.28125,92.28125,23.4375,0.0,0.0,0.0
1664548806204,-0.6513672,0.2578125,0.24023438,44.125,90.40625,24.53125,0.0,0.0,0.0
1664548806276,-0.6689453,0.43066406,0.25,33.3125,85.53125,35.5,0.0,0.0,0.0
1664548806318,-0.8017578,0.54785156,0.30371094,12.125,57.3125,34.84375,0.0,0.0,0.0
1664548806369,-0.65527344,0.3388672,0.23046875,-9.53125,48.78125,20.375,0.0,0.0,0.0
1664548806411,-0.921875,0.21777344,0.2607422,-3.59375,47.125,13.21875,0.0,0.0,0.0
1664548806448,-1.0976562,0.265625,0.24414062,-9.84375,51.03125,-6.375,0.0,0.0,0.0
1664548806487,-1.0761719,0.36914062,0.15917969,8.0625,23.375,-5.25,0.0,0.0,0.0
1664548806556,-0.8125,0.46191406,0.12402344,49.1875,-14.34375,7.84375,0.0,0.0,0.0
1664548806585,-0.5878906,0.50097656,0.087890625,45.65625,4.71875,11.09375,0.0,0.0,0.0
1664548806612,-1.0419922,0.4375,0.16894531,28.4375,22.15625,19.21875,-71.125,-25.0,-95.125
1664548806653,-0.78222656,0.4169922,0.026367188,5.5,29.25,-1.125,0.0,0.0,0.0
1664548806682,-0.6269531,0.3310547,0.025390625,-2.09375,13.96875,-2.21875,0.0,0.0,0.0
1664548806712,-1.1787109,0.734375,0.07910156,3.96875,35.78125,-0.5625,0.0,0.0,0.0
1664548806767,-0.8388672,0.56347656,-0.080078125,-15.15625,40.03125,-2.09375,0.0,0.0,0.0
1664548806786,-0.63964844,0.34960938,-0.14160156,-2.21875,-5.5,11.03125,0.0,0.0,0.0
1664548806813,-0.953125,0.86328125,0.0068359375,-13.0625,-10.84375,-4.96875,0.0,0.0,0.0
1664548806897,-1.0986328,0.38867188,0.11035156,-12.53125,61.46875,-15.15625,0.0,0.0,0.0
1664548806915,-0.7714844,0.40625,-0.21972656,8.28125,0.125,7.8125,0.0,0.0,0.0
1664548806936,-0.7910156,0.6035156,-0.0126953125,-6.84375,-28.875,7.8125,0.0,0.0,0.0
1664548806988,-1.2060547,0.41503906,0.16992188,13.0625,20.15625,-8.8125,0.0,0.0,0.0
1664548807003,-0.7636719,0.43066406,-0.15527344,-10.9375,1.71875,0.09375,0.0,0.0,0.0
1664548807040,-0.7138672,0.5830078,-0.0146484375,-0.3125,-15.25,11.21875,-72.3125,-24.125,-100.875
1664548807093,-0.82421875,0.2890625,0.10253906,20.625,2.21875,5.46875,0.0,0.0,0.0
1664548807125,-1.0546875,0.43164062,-0.0625,2.5,3.59375,-4.78125,0.0,0.0,0.0
1664548807170,-0.8828125,0.5546875,0.036132812,21.21875,-9.8125,2.59375,0.0,0.0,0.0
1664548807248,-0.75097656,0.62402344,0.11230469,9.15625,-16.96875,6.8125,0.0,0.0,0.0
1664548807272,-0.8066406,0.41796875,0.13574219,-8.78125,-20.5625,4.375,0.0,0.0,0.0
1664548807303,-0.7519531,0.24609375,0.14160156,-25.15625,-49.5625,-6.25,0.0,0.0,0.0
1664548807356,-0.81640625,0.43554688,0.20019531,-12.21875,-73.1875,-6.84375,0.0,0.0,0.0
1664548807382,-0.7138672,0.54589844,0.40527344,-29.25,-83.6875,-9.0,0.0,0.0,0.0
1664548807411,-0.4892578,0.203125,0.19824219,-24.84375,-66.8125,1.5,0.0,0.0,0.0
1664548807461,-0.5449219,0.32128906,0.34179688,-18.5,-122.0625,7.0,0.0,0.0,0.0
1664548807500,-0.8300781,0.38476562,0.32421875,-35.03125,-91.375,-6.375,0.0,0.0,0.0
1664548807535,-0.45507812,0.3017578,0.6035156,-19.78125,-84.90625,-12.46875,0.0,0.0,0.0
1664548807560,-0.4169922,0.4765625,0.49414062,-23.25,-82.28125,-11.625,-60.625,-27.5625,-81.8125
1664548807596,-0.5419922,0.16894531,0.4736328,-30.84375,-31.84375,-4.84375,0.0,0.0,0.0
1664548807615,-0.77734375,0.1953125,0.5371094,-19.21875,-48.875,-13.1875,0.0,0.0,0.0
1664548807674,-0.64160156,0.42089844,0.5546875,-9.90625,-46.0,-0.6875,0.0,0.0,0.0
1664548807703,-0.5439453,0.34375,0.20214844,-0.1875,-12.125,-2.21875,0.0,0.0,0.0
1664548807718,-0.5839844,0.31152344,0.23925781,7.0,-1.65625,-0.1875,0.0,0.0,0.0
1664548807756,-0.51171875,0.2578125,0.001953125,2.3125,41.5,-8.875,0.0,0.0,0.0
1664548807767,-0.2578125,0.22265625,0.20898438,37.65625,58.59375,-31.09375,0.0,0.0,0.0
1664548807784,-1.3291016,0.93359375,1.4863281,-6.59375,74.03125,-26.6875,0.0,0.0,0.0
1664548807849,-1.9863281,2.015625,-0.9970703,-60.25,-90.9375,5.0625,0.0,0.0,0.0
1664548807883,-1.9394531,0.0048828125,-0.5126953,-58.21875,8.0625,-41.46875,0.0,0.0,0.0
1664548807907,-1.5664062,0.38867188,0.3408203,37.09375,60.375,4.375,0.0,0.0,0.0
1664548807953,-0.96191406,0.0390625,0.38085938,69.28125,36.25,3.78125,-61.5,-35.1875,-78.1875
1664548807977,-0.5527344,0.40722656,0.59277344,70.0,11.53125,9.3125,0.0,0.0,0.0
1664548808008,-0.06738281,0.12011719,0.6123047,-10.5,21.625,8.28125,0.0,0.0,0.0
1664548808071,-0.20703125,-0.057617188,0.42382812,-18.25,28.21875,6.15625,0.0,0.0,0.0
1664548808096,-0.7167969,0.15039062,0.28515625,-1.28125,17.46875,9.6875,0.0,0.0,0.0
1664548808133,-1.0078125,0.44433594,0.50390625,0.0625,3.25,12.3125,0.0,0.0,0.0
1664548808181,-1.1630859,0.7675781,0.2783203,-3.125,-1.875,5.0625,0.0,0.0,0.0
1664548808216,-1.2089844,0.7167969,0.140625,-6.0,0.875,6.5625,0.0,0.0,0.0
1664548808256,-1.078125,0.5058594,0.25390625,-3.125,2.3125,6.5,0.0,0.0,0.0
1664548808316,-0.8564453,0.33984375,0.390625,14.71875,3.71875,2.1875,0.0,0.0,0.0
1664548808366,-0.671875,0.2939453,0.5107422,13.84375,-7.1875,3.40625,0.0,0.0,0.0
1664548808395,-0.5673828,0.24804688,0.45898438,9.875,-10.75,2.71875,0.0,0.0,0.0
1664548808453,-0.7216797,0.3330078,0.38671875,1.40625,-8.96875,2.4375,0.0,0.0,0.0
1664548808480,-0.93652344,0.44140625,0.32421875,6.09375,-17.75,5.78125,-60.875,-30.125,-82.125
1664548808505,-1.0263672,0.49804688,0.23632812,9.625,-29.78125,7.6875,0.0,0.0,0.0
1664548808554,-0.97753906,0.6201172,0.22460938,10.5625,-36.1875,1.3125,0.0,0.0,0.0
1664548808575,-0.88671875,0.546875,0.2763672,-6.90625,-41.375,-0.875,0.0,0.0,0.0
1664548808624,-0.75878906,0.4482422,0.38476562,-24.40625,-42.90625,-0.3125,0.0,0.0,0.0
1664548808660,-0.7626953,0.2939453,0.5292969,-19.15625,-45.65625,1.625,0.0,0.0,0.0
1664548808689,-0.70214844,0.39453125,0.609375,-10.03125,-54.1875,2.84375,0.0,0.0,0.0
1664548808718,-0.9091797,0.6357422,0.5449219,-11.46875,-67.3125,6.34375,0.0,0.0,0.0
1664548808779,-1.3740234,1.0107422,0.3984375,-26.1875,-90.6875,15.1875,0.0,0.0,0.0
1664548808802,-0.8886719,0.9863281,0.6279297,-89.65625,-94.46875,17.25,0.0,0.0,0.0
1664548808829,-1.0771484,0.39257812,0.62109375,-121.90625,-121.8125,48.375,0.0,0.0,0.0
1664548808924,-0.515625,0.12402344,0.63183594,-57.0625,-140.5625,72.5,0.0,0.0,0.0
1664548808966,-0.59472656,0.123046875,0.78515625,-35.78125,-123.40625,65.90625,-37.625,-38.6875,-68.875
1664548808987,-0.43652344,0.12695312,1.0048828,-40.15625,-89.65625,28.625,0.0,0.0,0.0
1664548809028,-0.26171875,0.14648438,1.1328125,-64.21875,-73.84375,-3.5,0.0,0.0,0.0
1664548809051,-0.20703125,0.0068359375,1.1357422,-62.3125,-42.28125,-27.0,0.0,0.0,0.0
1664548809082,-0.09765625,0.31933594,1.1083984,-42.78125,-26.25,-31.875,0.0,0.0,0.0
1664548809145,-0.10058594,0.3017578,0.9589844,-61.40625,-2.96875,-18.375,0.0,0.0,0.0
1664548809156,-0.0107421875,0.22363281,0.79296875,-52.0,29.84375,2.0625,0.0,0.0,0.0
1664548809187,-0.23632812,-9.765625E-4,1.1113281,-31.9375,52.25,4.0,0.0,0.0,0.0
1664548809274,-0.16796875,-0.01171875,0.9765625,-6.84375,52.625,-5.9375,0.0,0.0,0.0
1664548809316,-0.043945312,0.17773438,0.95703125,6.90625,73.25,3.28125,0.0,0.0,0.0
1664548809343,-0.2626953,0.0107421875,0.95214844,-15.6875,104.3125,6.28125,0.0,0.0,0.0
1664548809392,-0.37695312,-0.09375,0.95410156,11.21875,91.9375,7.0,0.0,0.0,0.0
1664548809425,-0.21679688,-0.07421875,0.71972656,40.75,92.28125,-1.53125,0.0,0.0,0.0
1664548809458,-0.33691406,0.047851562,0.82128906,50.59375,72.21875,7.1875,-45.4375,-46.4375,-67.5625
1664548809493,-0.5126953,0.18945312,0.75683594,62.90625,44.875,25.5,0.0,0.0,0.0
1664548809518,-0.453125,0.26757812,0.70996094,74.40625,52.0625,30.3125,0.0,0.0,0.0
1664548809556,-0.71875,0.20507812,0.703125,27.9375,88.03125,28.0,0.0,0.0,0.0
1664548809606,-0.79296875,0.2607422,0.62109375,58.46875,71.46875,32.6875,0.0,0.0,0.0
1664548809658,-0.75878906,0.32617188,0.5625,55.84375,69.03125,43.8125,0.0,0.0,0.0
1664548809683,-0.921875,0.3173828,0.53515625,40.34375,106.5,25.75,0.0,0.0,0.0
1664548809762,-0.6689453,0.43554688,0.54589844,44.4375,92.34375,37.875,0.0,0.0,0.0
1664548809798,-0.6435547,0.3017578,0.47753906,19.09375,106.5625,26.53125,0.0,0.0,0.0
1664548809827,-0.7675781,0.41015625,0.36035156,-5.5625,112.6875,25.3125,0.0,0.0,0.0
1664548809874,-0.5673828,0.1640625,0.3017578,4.15625,100.09375,7.8125,0.0,0.0,0.0
1664548809935,-0.64160156,0.1015625,0.24121094,32.03125,80.34375,4.4375,0.0,0.0,0.0
1664548809946,-0.796875,0.3125,0.26367188,26.59375,79.0625,-14.3125,-68.5625,-28.1875,-88.375
1664548810006,-0.67089844,0.5878906,0.2861328,25.75,85.46875,-27.90625,0.0,0.0,0.0
1664548810048,-0.8173828,0.5419922,0.24316406,19.28125,32.78125,-7.53125,0.0,0.0,0.0
1664548810092,-1.0380859,0.50878906,0.24316406,-0.125,4.84375,8.03125,0.0,0.0,0.0
1664548810171,-1.0224609,0.46777344,0.20507812,5.59375,5.5625,-2.21875,0.0,0.0,0.0
1664548810193,-0.8730469,0.4013672,0.0625,11.03125,4.875,-4.28125,0.0,0.0,0.0
1664548810237,-0.90625,0.49414062,0.11621094,23.0,-0.125,-0.1875,0.0,0.0,0.0
1664548810287,-0.83203125,0.51953125,0.080078125,16.0,7.5625,0.78125,0.0,0.0,0.0
1664548810305,-0.83984375,0.45410156,0.052734375,8.34375,10.5625,0.96875,0.0,0.0,0.0
1664548810328,-0.91015625,0.44726562,0.08691406,6.84375,9.15625,0.15625,0.0,0.0,0.0
1664548810354,-0.87402344,0.43847656,0.109375,3.96875,11.25,-0.0625,0.0,0.0,0.0
1664548810393,-0.95214844,0.421875,0.06933594,3.96875,8.3125,-0.375,0.0,0.0,0.0
1664548810434,-0.9404297,0.43945312,0.09277344,6.53125,4.53125,-1.34375,0.0,0.0,0.0
1664548810492,-0.91308594,0.41308594,0.0546875,7.375,4.53125,0.65625,-72.75,-28.625,-98.125
1664548810519,-0.8808594,0.4013672,0.048828125,15.4375,3.5625,3.65625,0.0,0.0,0.0
1664548810553,-0.9160156,0.43359375,0.06640625,17.625,2.75,3.46875,0.0,0.0,0.0
1664548810589,-0.9111328,0.42578125,0.15820312,12.625,-5.5,3.46875,0.0,0.0,0.0
1664548810609,-0.85058594,0.4189453,0.1171875,1.65625,-18.4375,2.0,0.0,0.0,0.0
1664548810641,-0.8720703,0.3984375,0.17382812,7.3125,-28.1875,8.28125,0.0,0.0,0.0
1664548810715,-0.8623047,0.3466797,0.05078125,-0.125,-45.40625,2.4375,0.0,0.0,0.0
1664548810742,-0.7949219,0.39746094,0.2529297,13.65625,-63.46875,3.90625,0.0,0.0,0.0
1664548810767,-0.71191406,0.39160156,0.16015625,0.71875,-77.3125,-2.875,0.0,0.0,0.0
1664548810821,-0.671875,0.42089844,0.22460938,12.09375,-79.21875,0.53125,0.0,0.0,0.0
1664548810866,-0.6640625,0.3486328,0.21289062,-7.8125,-80.875,-4.09375,0.0,0.0,0.0
1664548810882,-0.6044922,0.26464844,0.23828125,10.5625,-79.03125,0.59375,0.0,0.0,0.0
1664548810945,-0.56640625,0.3017578,0.5576172,-7.34375,-68.46875,-3.125,-64.8125,-26.9375,-84.8125
1664548810975,-0.60839844,0.3857422,0.37890625,3.03125,-42.09375,-4.21875,0.0,0.0,0.0
1664548811005,-0.89746094,0.4248047,0.5185547,-43.09375,-35.8125,-8.8125,0.0,0.0,0.0
1664548811061,-0.8457031,0.12011719,0.33984375,-16.5,-44.5625,-13.75,0.0,0.0,0.0
1664548811096,-0.49609375,0.26171875,0.3095703,19.71875,-64.375,-14.78125,0.0,0.0,0.0
1664548811119,-0.41210938,0.43945312,0.33496094,-4.34375,-22.75,-11.84375,0.0,0.0,0.0
1664548811209,-0.5576172,0.18554688,0.35839844,-13.0,24.96875,-11.125,0.0,0.0,0.0
1664548811213,-0.52246094,0.25390625,0.14550781,1.59375,21.84375,-22.40625,0.0,0.0,0.0
1664548811248,-0.24316406,0.3720703,0.15527344,16.90625,42.84375,-13.0625,0.0,0.0,0.0
1664548811313,-0.2421875,0.14746094,0.032226562,8.28125,83.0625,-8.0,0.0,0.0,0.0
1664548811330,-1.4775391,1.1533203,1.1171875,-16.71875,85.59375,-14.46875,0.0,0.0,0.0
1664548811372,-1.9863281,1.6943359,-0.21972656,33.6875,-100.625,-42.3125,0.0,0.0,0.0
1664548811413,-1.8710938,-0.23828125,-0.75683594,-59.625,-7.0,-28.875,0.0,0.0,0.0
1664548811439,-1.2949219,1.0556641,-0.15429688,67.4375,34.3125,4.6875,-60.625,-34.625,-81.375
1664548811474,-0.73339844,0.515625,0.49121094,-1.96875,48.84375,-0.625,0.0,0.0,0.0
1664548811529,-1.0839844,0.08691406,0.2548828,41.0625,40.40625,16.03125,0.0,0.0,0.0
1664548811557,-0.5292969,0.044921875,0.7080078,20.9375,13.5,13.53125,0.0,0.0,0.0
1664548811595,-0.25585938,0.1484375,0.49609375,6.71875,22.53125,3.46875,0.0,0.0,0.0
1664548811679,-0.63964844,0.28222656,0.3076172,-7.5,24.3125,-0.25,0.0,0.0,0.0
1664548811718,-1.0605469,0.37402344,0.18847656,-0.3125,8.96875,3.46875,0.0,0.0,0.0
1664548811750,-1.1572266,0.8330078,-0.041992188,-1.65625,9.09375,7.75,0.0,0.0,0.0
1664548811817,-1.2441406,0.4873047,0.01171875,-4.46875,12.46875,9.375,0.0,0.0,0.0
1664548811842,-0.98046875,0.47851562,0.171875,2.0625,8.84375,4.8125,0.0,0.0,0.0
1664548811864,-0.77246094,0.42773438,0.35058594,-3.59375,17.875,8.65625,0.0,0.0,0.0
1664548811933,-0.6738281,0.28027344,0.41992188,-1.34375,17.59375,12.3125,0.0,0.0,0.0
1664548811969,-0.6425781,0.33398438,0.34472656,-2.5,16.125,4.4375,-65.5625,-30.6875,-87.9375
1664548811985,-0.99609375,0.19628906,-0.057617188,-32.0,32.53125,-1.3125,0.0,0.0,0.0
1664548812039,-0.9951172,0.46289062,-0.013671875,-7.09375,10.875,0.65625,0.0,0.0,0.0
1664548812074,-1.0292969,0.51171875,0.06738281,4.3125,-0.3125,2.1875,0.0,0.0,0.0
1664548812095,-0.9902344,0.4423828,0.068359375,18.25,-4.8125,0.84375,0.0,0.0,0.0
1664548812174,-0.84375,0.4013672,0.20605469,25.125,-14.28125,-0.375,0.0,0.0,0.0
1664548812214,-0.7841797,0.47460938,0.21679688,12.8125,-10.90625,-2.15625,0.0,0.0,0.0
1664548812243,-0.7998047,0.4453125,0.25390625,6.84375,-10.5,-2.9375,0.0,0.0,0.0
1664548812303,-0.88378906,0.4169922,0.1953125,-0.625,-7.8125,-4.90625,0.0,0.0,0.0
1664548812313,-0.90527344,0.40234375,0.20117188,4.28125,-10.6875,-4.03125,0.0,0.0,0.0
1664548812326,-0.9658203,0.39257812,0.14648438,1.03125,-12.75,-2.625,0.0,0.0,0.0
1664548812383,-0.9169922,0.43847656,0.19824219,9.875,-22.15625,-1.40625,0.0,0.0,0.0
1664548812398,-0.88378906,0.4501953,0.21875,3.53125,-22.46875,-1.1875,0.0,0.0,0.0
1664548812429,-0.87402344,0.39648438,0.23144531,1.65625,-25.9375,0.40625,-65.25,-28.3125,-88.25
1664548812560,-0.89160156,0.43847656,0.19824219,0.78125,-33.3125,1.375,0.0,0.0,0.0
1664548812616,-0.8730469,0.4580078,0.24609375,-2.5625,-37.96875,1.5625,0.0,0.0,0.0
1664548812669,-0.8876953,0.4560547,0.26171875,-6.0,-42.90625,1.8125,0.0,0.0,0.0
1664548812730,-0.8671875,0.49804688,0.27148438,-7.6875,-49.3125,2.0,0.0,0.0,0.0
1664548812746,-0.8232422,0.54003906,0.28515625,-18.375,-56.15625,0.90625,0.0,0.0,0.0
1664548812781,-0.83691406,0.51171875,0.31835938,-34.625,-64.8125,1.21875,0.0,0.0,0.0
1664548812840,-0.8564453,0.45898438,0.32226562,-51.65625,-70.125,3.03125,0.0,0.0,0.0
1664548812889,-0.9921875,0.5546875,0.38964844,-45.0,-89.28125,6.5,0.0,0.0,0.0
1664548812935,-1.15625,0.69433594,0.7578125,-49.5,-119.3125,6.9375,0.0,0.0,0.0
1664548813023,-1.0107422,0.7128906,0.48242188,-97.59375,-121.28125,5.0,0.0,0.0,0.0
1664548813024,-0.8535156,0.33398438,0.53515625,-104.875,-117.59375,16.65625,0.0,0.0,0.0
1664548813042,-0.53027344,0.109375,0.84472656,-60.8125,-114.75,36.71875,-45.125,-38.0625,-71.0
1664548813115,-0.7363281,0.13085938,1.40625,-50.53125,-110.40625,49.90625,0.0,0.0,0.0
1664548813142,-0.13964844,-0.01171875,1.3564453,-64.75,-93.625,20.84375,0.0,0.0,0.0
1664548813172,-0.140625,0.01953125,1.2304688,-50.59375,-67.4375,-7.46875,0.0,0.0,0.0
1664548813220,-0.2109375,0.19433594,1.0048828,-50.90625,-13.84375,-31.15625,0.0,0.0,0.0
1664548813235,-0.10058594,0.14257812,0.8203125,-52.8125,24.0,-31.75,0.0,0.0,0.0
1664548813236,-0.171875,0.044921875,0.9511719,-51.59375,47.25,-25.78125,0.0,0.0,0.0
1664548813240,-0.1953125,-0.10839844,0.8691406,-15.21875,56.53125,-31.375,0.0,0.0,0.0
1664548813241,-0.24609375,-0.07324219,0.8310547,2.25,62.5,-26.25,0.0,0.0,0.0
1664548813304,-0.18457031,-0.0087890625,0.8876953,19.9375,73.0625,-38.53125,0.0,0.0,0.0
1664548813329,-0.1875,-0.0546875,0.78222656,34.59375,100.46875,-38.59375,0.0,0.0,0.0
1664548813359,-0.33398438,-0.029296875,0.90722656,40.34375,92.46875,-24.4375,0.0,0.0,0.0
1664548813389,-0.44335938,-0.06640625,0.7128906,55.71875,80.6875,-8.625,0.0,0.0,0.0
1664548813451,-0.5839844,0.2705078,0.7060547,73.40625,62.03125,9.6875,-47.375,-44.8125,-69.5
1664548813480,-0.5097656,0.33398438,0.7939453,41.375,67.34375,20.5625,0.0,0.0,0.0
1664548813508,-0.80859375,0.21777344,0.7841797,27.8125,76.125,33.1875,0.0,0.0,0.0
1664548813571,-0.7128906,0.15722656,0.6386719,46.125,66.53125,45.21875,0.0,0.0,0.0
1664548813598,-0.87597656,0.18261719,0.6347656,53.40625,75.6875,47.03125,0.0,0.0,0.0
1664548813630,-0.7939453,0.4326172,0.5078125,64.4375,71.96875,47.84375,0.0,0.0,0.0
1664548813693,-0.82714844,0.32910156,0.47460938,41.6875,102.5,46.875,0.0,0.0,0.0
1664548813720,-0.97265625,0.26953125,0.41308594,30.03125,113.71875,34.96875,0.0,0.0,0.0
1664548813751,-0.81152344,0.2890625,0.2578125,35.28125,97.65625,31.90625,0.0,0.0,0.0
1664548813812,-0.7792969,0.36132812,0.25097656,36.625,101.8125,29.84375,0.0,0.0,0.0
1664548813841,-0.69921875,0.38085938,0.23144531,14.53125,111.9375,21.46875,0.0,0.0,0.0
1664548813869,-0.6220703,0.21679688,0.21875,4.375,112.96875,10.3125,0.0,0.0,0.0
1664548813929,-0.64941406,0.109375,-0.013671875,-3.96875,104.1875,4.5625,-70.9375,-25.75,-96.375
1664548813960,-0.67578125,0.3486328,-0.125,24.59375,73.0,13.0,0.0,0.0,0.0
1664548813991,-1.0546875,0.49414062,0.09863281,46.75,41.4375,29.28125,0.0,0.0,0.0
1664548814048,-1.0185547,0.57128906,0.044921875,44.84375,16.0625,-1.84375,0.0,0.0,0.0
1664548814078,-0.9316406,0.6826172,0.0107421875,-34.625,4.875,-7.40625,0.0,0.0,0.0
1664548814111,-1.0625,0.4404297,-0.19238281,-16.71875,-4.09375,0.96875,0.0,0.0,0.0
1664548814170,-0.93359375,0.4638672,-0.043945312,-14.65625,-30.9375,-1.40625,0.0,0.0,0.0
1664548814199,-0.8388672,0.40625,-0.0234375,-8.625,-26.65625,2.5,0.0,0.0,0.0
1664548814230,-0.765625,0.37402344,-0.107421875,1.53125,-20.125,-2.59375,0.0,0.0,0.0
1664548814291,-0.77246094,0.49121094,0.11816406,-15.9375,-39.59375,-6.4375,0.0,0.0,0.0
1664548814320,-0.71972656,0.31347656,0.15332031,-34.5625,-52.125,-26.875,0.0,0.0,0.0
1664548814347,-0.7363281,0.24316406,0.29003906,-47.125,-80.4375,-18.625,0.0,0.0,0.0
1664548814412,-0.7988281,0.37304688,0.19628906,-53.40625,-136.46875,-8.125,0.0,0.0,0.0
1664548814440,-0.56640625,0.234375,0.42285156,46.6875,-111.5625,-24.25,-68.875,-29.0625,-88.5625
1664548814475,-0.30371094,-0.044921875,0.1015625,-4.28125,-65.0,-6.3125,0.0,0.0,0.0
1664548814529,-0.53027344,0.56152344,0.6660156,18.84375,-112.125,13.03125,0.0,0.0,0.0
1664548814560,-0.8017578,0.50683594,0.46875,-16.3125,-61.9375,-5.75,0.0,0.0,0.0
1664548814591,-0.47851562,0.4111328,0.6191406,-55.5,-20.125,-7.21875,0.0,0.0,0.0
1664548814649,-0.8769531,-0.18164062,0.5488281,-51.21875,-38.1875,-13.5625,0.0,0.0,0.0
1664548814680,-0.5810547,0.16894531,0.57910156,33.5,-63.78125,-23.28125,0.0,0.0,0.0
1664548814709,-0.5859375,0.43554688,0.3232422,26.3125,-34.71875,-14.34375,0.0,0.0,0.0
1664548814772,-0.55859375,0.33398438,0.22460938,7.375,-2.875,-15.625,0.0,0.0,0.0
1664548814798,-0.45703125,0.22851562,0.10253906,-9.53125,40.53125,-20.84375,0.0,0.0,0.0
1664548814832,-0.3984375,0.18945312,-0.09863281,-8.4375,71.78125,-28.8125,0.0,0.0,0.0
1664548814890,-0.09667969,0.015625,-0.044921875,7.0625,95.46875,-33.59375,0.0,0.0,0.0
1664548814918,-1.9863281,2.0019531,1.9931641,-108.59375,45.0,-9.125,-64.625,-35.5,-82.5625
1664548814949,-0.036132812,1.8398438,0.76171875,-67.28125,-146.0625,27.875,0.0,0.0,0.0
1664548815011,-1.9033203,-0.5654297,-0.4873047,21.1875,-60.34375,-41.53125,0.0,0.0,0.0
1664548815042,-1.4521484,0.78125,0.5908203,24.15625,1.03125,9.875,0.0,0.0,0.0
1664548815070,-0.8222656,0.2109375,0.19238281,34.46875,20.09375,7.375,0.0,0.0,0.0
1664548815130,-0.8251953,0.26171875,0.5205078,58.40625,1.84375,7.25,0.0,0.0,0.0
1664548815160,-0.2548828,0.30273438,0.8730469,34.40625,-6.34375,8.96875,0.0,0.0,0.0
1664548815188,-0.23730469,0.115234375,0.5878906,-13.6875,22.15625,-3.1875,0.0,0.0,0.0
1664548815249,-0.62109375,0.21289062,0.5410156,-34.3125,22.53125,2.1875,0.0,0.0,0.0
1664548815281,-0.94921875,0.48046875,0.36816406,-31.0625,17.21875,10.25,0.0,0.0,0.0
1664548815310,-1.1425781,0.35839844,0.31640625,-37.125,10.9375,1.03125,0.0,0.0,0.0
1664548815375,-1.1396484,0.3642578,0.26464844,-18.3125,4.46875,-1.59375,0.0,0.0,0.0
1664548815399,-1.0537109,0.31054688,0.3388672,6.34375,-7.1875,-3.90625,0.0,0.0,0.0
1664548815430,-0.8203125,0.2548828,0.44628906,18.3125,-16.71875,-3.625,-60.3125,-38.5,-78.625
1664548815490,-0.72558594,0.2861328,0.47265625,12.875,-19.9375,-5.09375,0.0,0.0,0.0
1664548815521,-0.7011719,0.31054688,0.5517578,-4.15625,-16.28125,-8.125,0.0,0.0,0.0
1664548815548,-0.6923828,0.24023438,0.50390625,-20.8125,-7.75,-3.75,0.0,0.0,0.0
1664548815610,-0.890625,0.22753906,0.5185547,-25.40625,-9.625,-1.34375,0.0,0.0,0.0
1664548815640,-0.9658203,0.328125,0.4345703,-18.4375,-19.9375,-2.75,0.0,0.0,0.0
1664548815671,-0.9716797,0.18945312,0.3955078,-12.46875,-28.25,-0.625,0.0,0.0,0.0
1664548815731,-0.8808594,0.2529297,0.5283203,-1.21875,-41.5,-1.71875,0.0,0.0,0.0
1664548815764,-0.77734375,0.21875,0.5878906,-3.0625,-40.03125,-7.46875,0.0,0.0,0.0
1664548815790,-0.6513672,0.37402344,0.6748047,-3.0625,-42.0,-8.6875,0.0,0.0,0.0
1664548815851,-0.6972656,0.23828125,0.7080078,-18.5,-30.15625,-7.40625,0.0,0.0,0.0
1664548815881,-0.6669922,0.19628906,0.6748047,-9.28125,-34.21875,-7.46875,0.0,0.0,0.0
1664548815909,-0.7402344,0.20410156,0.7890625,-9.15625,-24.96875,-7.875,-53.875,-41.375,-73.875
1664548815972,-0.6855469,0.2421875,0.68066406,0.0,-27.28125,-3.75,0.0,0.0,0.0
1664548816001,-0.6923828,0.17382812,0.76464844,-9.78125,-13.53125,-6.3125,0.0,0.0,0.0
1664548816035,-0.6738281,0.17382812,0.73828125,0.125,-14.875,-2.9375,0.0,0.0,0.0
1664548816089,-0.6142578,0.16894531,0.79003906,-0.875,-4.6875,-3.0625,0.0,0.0,0.0
1664548816122,-0.64941406,0.18457031,0.7402344,0.25,-1.46875,-0.3125,0.0,0.0,0.0
1664548816153,-0.68652344,0.18847656,0.7138672,-2.5,5.875,-0.375,0.0,0.0,0.0
1664548816207,-0.7167969,0.20898438,0.71777344,-1.40625,7.8125,0.15625,0.0,0.0,0.0
1664548816240,-0.7128906,0.17578125,0.68066406,-0.125,9.96875,0.0,0.0,0.0,0.0
1664548816273,-0.7216797,0.18847656,0.67285156,1.65625,7.625,0.40625,0.0,0.0,0.0
1664548816328,-0.7060547,0.16699219,0.64453125,-1.15625,7.875,1.21875,0.0,0.0,0.0
1664548816359,-0.71875,0.20800781,0.64746094,-1.84375,5.875,1.09375,0.0,0.0,0.0
1664548816389,-0.7285156,0.21191406,0.6582031,-5.4375,5.8125,0.21875,0.0,0.0,0.0
1664548816452,-0.7753906,0.19433594,0.6455078,-4.21875,4.40625,-1.0625,-54.0,-43.3125,-73.375
1664548816477,-0.7265625,0.22558594,0.671875,-2.5,3.71875,-2.6875,0.0,0.0,0.0
1664548816507,-0.72558594,0.1640625,0.66015625,-3.65625,3.84375,-5.5,0.0,0.0,0.0
1664548816576,-0.70703125,0.16308594,0.68652344,-2.03125,4.28125,-3.375,0.0,0.0,0.0
1664548816599,-0.7324219,0.1875,0.6611328,-4.40625,4.59375,-2.21875,0.0,0.0,0.0
1664548816628,-0.7578125,0.14941406,0.6621094,-5.625,5.6875,-1.40625,0.0,0.0,0.0
1664548816688,-0.7421875,0.15234375,0.66308594,-1.53125,4.34375,-0.5,0.0,0.0,0.0
1664548816722,-0.73535156,0.15625,0.6748047,-2.15625,5.8125,-0.0625,0.0,0.0,0.0
1664548816752,-0.74902344,0.16113281,0.6484375,-1.84375,5.5625,-0.3125,0.0,0.0,0.0
1664548816810,-0.7470703,0.15429688,0.6699219,0.25,6.0625,0.0,0.0,0.0,0.0
1664548816840,-0.7441406,0.18847656,0.64941406,1.03125,5.8125,-0.5625,0.0,0.0,0.0
1664548816869,-0.7480469,0.1640625,0.640625,0.71875,7.03125,-0.375,0.0,0.0,0.0
1664548816930,-0.7636719,0.16699219,0.6328125,-0.1875,6.21875,-0.4375,-55.375,-43.1875,-74.875
1664548816960,-0.77734375,0.171875,0.62597656,-1.59375,5.6875,0.15625,0.0,0.0,0.0
1664548816992,-0.7763672,0.16113281,0.6220703,-2.375,6.0625,-0.625,0.0,0.0,0.0
1664548817052,-0.7714844,0.15332031,0.6279297,-1.96875,4.40625,-0.0625,0.0,0.0,0.0
1664548817081,-0.7753906,0.14941406,0.6269531,-0.25,3.78125,-1.1875,0.0,0.0,0.0
1664548817113,-0.7705078,0.17480469,0.6230469,-1.15625,2.4375,-0.25,0.0,0.0,0.0
1664548817172,-0.7890625,0.15039062,0.6191406,-2.75,3.4375,-1.34375,0.0,0.0,0.0
1664548817200,-0.7832031,0.15332031,0.62890625,-1.71875,1.15625,-0.8125,0.0,0.0,0.0
1664548817230,-0.78125,0.17285156,0.625,-0.625,-0.59375,-1.0,0.0,0.0,0.0
1664548817287,-0.76953125,0.16113281,0.6191406,-1.03125,-1.40625,-0.875,0.0,0.0,0.0
1664548817319,-0.7558594,0.16699219,0.6308594,-2.21875,-0.65625,-1.25,0.0,0.0,0.0
1664548817357,-0.7714844,0.14355469,0.63671875,-2.25,-1.09375,-0.9375,0.0,0.0,0.0
1664548817409,-0.7714844,0.15722656,0.6376953,-2.15625,-1.59375,-1.40625,0.0,0.0,0.0
1664548817436,-0.77246094,0.14648438,0.61816406,-2.21875,-2.0,-1.3125,-56.875,-44.6875,-73.375
1664548817468,-0.7626953,0.14355469,0.6435547,-1.40625,-2.125,-1.53125,0.0,0.0,0.0
1664548817531,-0.76953125,0.13867188,0.6435547,-0.6875,-2.625,-1.59375,0.0,0.0,0.0
1664548817561,-0.7470703,0.15332031,0.6435547,-0.8125,-2.3125,-1.34375,0.0,0.0,0.0
1664548817591,-0.76464844,0.13378906,0.64160156,-1.78125,-1.9375,-1.25,0.0,0.0,0.0
1664548817649,-0.7607422,0.14257812,0.6376953,-1.59375,-2.375,-1.25,0.0,0.0,0.0
1664548817679,-0.75878906,0.1328125,0.64746094,-1.09375,-2.5625,-0.5625,0.0,0.0,0.0
1664548817712,-0.76660156,0.13769531,0.6533203,-0.5,-2.5625,-1.0,0.0,0.0,0.0
1664548817768,-0.7548828,0.14453125,0.6464844,-1.34375,-2.1875,-1.125,0.0,0.0,0.0
1664548817799,-0.7597656,0.123046875,0.6591797,-0.90625,-1.65625,-1.34375,0.0,0.0,0.0
1664548817828,-0.7636719,0.13183594,0.6455078,-0.75,-1.6875,-1.25,0.0,0.0,0.0
