# Sensor type: Thingy
# Activity type: Standing
# Activity code: 100
# Subject id: s1956488
# Notes: 1
timestamp,accel_x,accel_y,accel_z,gyro_x,gyro_y,gyro_z,mag_x,mag_y,mag_z
1664548083001,-0.97558594,0.21484375,0.13964844,-9.21875,7.5,0.875,-70.1875,-32.1875,-98.75
1664548083058,-0.9736328,0.16601562,0.15820312,-9.40625,7.71875,0.375,0.0,0.0,0.0
1664548083059,-1.0078125,0.14453125,0.19335938,-6.90625,5.65625,0.4375,0.0,0.0,0.0
1664548083075,-1.0009766,0.14550781,0.15820312,-1.84375,3.21875,0.625,0.0,0.0,0.0
1664548083132,-0.9863281,0.17871094,0.119140625,5.1875,3.15625,1.65625,0.0,0.0,0.0
1664548083158,-0.9560547,0.2421875,0.09277344,8.34375,5.40625,3.0,0.0,0.0,0.0
1664548083189,-0.96191406,0.27539062,0.06738281,8.09375,8.84375,4.34375,0.0,0.0,0.0
1664548083250,-0.953125,0.328125,0.026367188,7.375,14.6875,6.625,0.0,0.0,0.0
1664548083277,-0.9785156,0.32128906,0.034179688,2.1875,21.84375,7.71875,0.0,0.0,0.0
1664548083308,-0.9951172,0.31933594,0.049804688,-0.5,17.75,4.53125,0.0,0.0,0.0
1664548083368,-0.99121094,0.27148438,0.059570312,-6.46875,9.375,0.75,0.0,0.0,0.0
1664548083398,-0.9785156,0.24414062,9.765625E-4,-8.125,4.375,-1.03125,0.0,0.0,0.0
1664548083460,-0.99316406,0.25,-0.0048828125,-1.34375,5.21875,-0.46875,-71.25,-29.375,-100.875
1664548083496,-0.9765625,0.2890625,0.033203125,3.28125,4.1875,-0.28125,0.0,0.0,0.0
1664548083519,-1.0009766,0.25390625,0.016601562,0.28125,1.125,-0.59375,0.0,0.0,0.0
1664548083546,-0.9794922,0.27441406,0.036132812,3.78125,-0.09375,-1.6875,0.0,0.0,0.0
1664548083608,-0.9794922,0.26367188,0.0107421875,4.1875,-0.03125,-0.53125,0.0,0.0,0.0
1664548083639,-0.9785156,0.29882812,0.03515625,3.34375,0.09375,-1.3125,0.0,0.0,0.0
1664548083670,-0.9765625,0.28710938,0.028320312,-2.75,0.71875,-2.40625,0.0,0.0,0.0
1664548083730,-0.9824219,0.25585938,0.0126953125,-5.5,1.3125,-2.53125,0.0,0.0,0.0
1664548083761,-0.9902344,0.25,0.020507812,-7.34375,1.75,-3.6875,0.0,0.0,0.0
1664548083788,-0.9716797,0.22851562,0.021484375,-8.1875,-2.15625,-1.5,0.0,0.0,0.0
1664548083882,-0.9902344,0.21679688,0.030273438,-3.0625,0.03125,-1.75,0.0,0.0,0.0
1664548083886,-0.99316406,0.22949219,0.028320312,-0.4375,-0.75,-1.6875,0.0,0.0,0.0
1664548083909,-0.9863281,0.23730469,0.034179688,3.09375,-0.9375,-1.1875,0.0,0.0,0.0
1664548083971,-0.9746094,0.23535156,0.051757812,1.21875,-1.4375,-0.53125,-72.3125,-31.1875,-101.875
1664548084001,-0.9892578,0.23925781,0.045898438,1.21875,-1.0625,-1.25,0.0,0.0,0.0
1664548084030,-0.984375,0.24511719,0.03515625,1.15625,-1.59375,-1.25,0.0,0.0,0.0
1664548084089,-0.9902344,0.24316406,0.021484375,2.3125,-1.4375,-0.40625,0.0,0.0,0.0
1664548084118,-0.9814453,0.2548828,0.053710938,1.6875,-1.3125,-1.125,0.0,0.0,0.0
1664548084149,-0.9824219,0.2421875,0.04296875,0.0625,-1.0625,-0.71875,0.0,0.0,0.0
1664548084210,-0.9892578,0.24121094,0.043945312,0.84375,-0.875,-1.03125,0.0,0.0,0.0
1664548084240,-0.99316406,0.24511719,0.059570312,1.53125,-1.46875,-0.90625,0.0,0.0,0.0
1664548084268,-0.98535156,0.23828125,0.048828125,1.09375,-1.25,-0.96875,0.0,0.0,0.0
1664548084329,-0.97753906,0.24609375,0.051757812,1.21875,-0.75,-0.84375,0.0,0.0,0.0
1664548084358,-0.98535156,0.25390625,0.030273438,0.84375,-0.03125,-0.21875,0.0,0.0,0.0
1664548084392,-0.9980469,0.24511719,0.04296875,0.1875,0.84375,-0.53125,0.0,0.0,0.0
1664548084448,-0.9941406,0.23046875,0.047851562,-0.5625,0.90625,-0.40625,-71.875,-31.625,-102.375
1664548084479,-0.9824219,0.23535156,0.040039062,0.0,0.71875,-0.65625,0.0,0.0,0.0
1664548084507,-0.9824219,0.23339844,0.0390625,0.0,0.40625,-0.59375,0.0,0.0,0.0
1664548084571,-0.9794922,0.23828125,0.040039062,0.1875,0.15625,-0.65625,0.0,0.0,0.0
1664548084633,-0.99316406,0.23339844,0.040039062,0.90625,-0.3125,-0.71875,0.0,0.0,0.0
1664548084637,-0.9824219,0.24707031,0.024414062,0.46875,-0.25,-0.15625,0.0,0.0,0.0
1664548084690,-0.9785156,0.24023438,0.024414062,0.34375,0.46875,0.09375,0.0,0.0,0.0
1664548084719,-0.9980469,0.24121094,0.04296875,0.96875,0.59375,-0.09375,0.0,0.0,0.0
1664548084750,-0.99316406,0.24902344,0.034179688,0.65625,0.21875,0.15625,0.0,0.0,0.0
1664548084811,-0.98828125,0.2265625,0.051757812,0.90625,0.40625,-0.03125,0.0,0.0,0.0
1664548084839,-0.9873047,0.23925781,0.045898438,0.84375,0.46875,-0.28125,0.0,0.0,0.0
1664548084869,-0.9873047,0.23535156,0.043945312,0.78125,0.46875,-0.15625,0.0,0.0,0.0
1664548084930,-0.9814453,0.24609375,0.030273438,0.53125,0.59375,-0.15625,0.0,0.0,0.0
1664548084958,-0.98828125,0.23144531,0.029296875,1.03125,0.03125,-0.21875,-71.875,-30.5625,-101.75
1664548084995,-0.9814453,0.23535156,0.025390625,0.125,0.46875,-0.09375,0.0,0.0,0.0
1664548085046,-0.9921875,0.24023438,0.032226562,0.65625,0.34375,0.21875,0.0,0.0,0.0
1664548085079,-0.9921875,0.23925781,0.032226562,-0.125,0.46875,-0.03125,0.0,0.0,0.0
1664548085107,-0.99121094,0.23242188,0.0390625,0.21875,0.28125,-0.03125,0.0,0.0,0.0
1664548085169,-0.9765625,0.23632812,0.03125,0.40625,0.40625,-0.03125,0.0,0.0,0.0
1664548085197,-0.9863281,0.234375,0.03515625,0.65625,0.46875,0.09375,0.0,0.0,0.0
1664548085229,-0.9902344,0.23144531,0.032226562,-0.3125,0.71875,0.09375,0.0,0.0,0.0
1664548085290,-0.9970703,0.23730469,0.0390625,0.0,0.09375,-0.15625,0.0,0.0,0.0
1664548085318,-0.9746094,0.28320312,0.029296875,-0.375,-0.25,-0.28125,0.0,0.0,0.0
1664548085349,-0.9746094,0.28710938,0.037109375,0.0,0.03125,-0.09375,0.0,0.0,0.0
1664548085410,-0.9716797,0.29882812,0.03515625,0.34375,-0.25,-0.15625,0.0,0.0,0.0
1664548085439,-0.96777344,0.29101562,0.029296875,0.0,-0.3125,-0.03125,-74.6875,-30.5625,-101.75
1664548085468,-0.9589844,0.2939453,0.015625,0.0625,-0.5,-0.09375,0.0,0.0,0.0
1664548085529,-0.9785156,0.28808594,0.044921875,0.53125,-0.15625,0.25,0.0,0.0,0.0
1664548085560,-0.9765625,0.28515625,0.046875,0.40625,0.34375,0.09375,0.0,0.0,0.0
1664548085588,-0.96972656,0.2841797,0.034179688,0.40625,-0.375,0.03125,0.0,0.0,0.0
1664548085652,-0.98046875,0.2939453,0.044921875,-0.25,-0.5625,-0.34375,0.0,0.0,0.0
1664548085679,-0.97558594,0.29492188,0.0234375,-0.3125,-0.5625,-0.28125,0.0,0.0,0.0
1664548085707,-0.9814453,0.29589844,0.025390625,0.46875,-0.5625,-0.15625,0.0,0.0,0.0
1664548085768,-0.96875,0.29296875,0.041015625,0.125,-0.09375,0.25,0.0,0.0,0.0
1664548085803,-0.98828125,0.28125,0.041992188,-0.1875,-0.03125,0.25,0.0,0.0,0.0
1664548085834,-0.98535156,0.28222656,0.060546875,-1.40625,-0.4375,-0.15625,0.0,0.0,0.0
1664548085888,-0.98535156,0.27734375,0.045898438,-0.5625,-0.25,-0.34375,0.0,0.0,0.0
1664548085923,-0.98046875,0.2890625,0.037109375,-0.6875,-0.75,-0.28125,0.0,0.0,0.0
1664548085949,-0.9707031,0.28710938,0.041015625,0.71875,-0.25,-0.21875,-72.125,-31.625,-102.0625
1664548086010,-0.97558594,0.2841797,0.037109375,0.40625,-0.25,-0.03125,0.0,0.0,0.0
1664548086041,-0.96875,0.29101562,0.043945312,0.46875,0.03125,0.09375,0.0,0.0,0.0
1664548086097,-0.9785156,0.29003906,0.0390625,0.21875,0.28125,-0.21875,0.0,0.0,0.0
1664548086160,-0.96777344,0.28515625,0.044921875,0.46875,0.65625,0.25,0.0,0.0,0.0
1664548086163,-0.98046875,0.29492188,0.041992188,0.21875,1.25,0.375,0.0,0.0,0.0
1664548086186,-0.98339844,0.2919922,0.04296875,-0.6875,0.65625,0.15625,0.0,0.0,0.0
1664548086251,-0.9716797,0.28027344,0.046875,-0.75,0.09375,-0.21875,0.0,0.0,0.0
1664548086279,-0.9794922,0.28515625,0.04296875,-0.125,0.21875,-0.03125,0.0,0.0,0.0
1664548086309,-0.96972656,0.28808594,0.04296875,0.1875,-0.15625,-0.03125,0.0,0.0,0.0
1664548086370,-0.9785156,0.2783203,0.03515625,-0.1875,0.46875,0.03125,0.0,0.0,0.0
1664548086399,-0.9716797,0.28222656,0.0390625,-0.4375,0.15625,0.09375,0.0,0.0,0.0
1664548086427,-0.97265625,0.28515625,0.044921875,-0.3125,0.15625,0.09375,-72.4375,-29.8125,-101.3125
1664548086489,-0.98535156,0.28222656,0.046875,0.21875,0.28125,0.03125,0.0,0.0,0.0
1664548086521,-0.9667969,0.29589844,0.0390625,-0.0625,0.34375,-0.03125,0.0,0.0,0.0
1664548086547,-0.97558594,0.28710938,0.046875,1.03125,0.65625,0.25,0.0,0.0,0.0
1664548086611,-0.9746094,0.2890625,0.040039062,0.53125,0.71875,0.03125,0.0,0.0,0.0
1664548086642,-0.9707031,0.28710938,0.038085938,1.09375,0.65625,0.3125,0.0,0.0,0.0
1664548086670,-0.98535156,0.29492188,0.041015625,0.40625,0.84375,0.3125,0.0,0.0,0.0
1664548086731,-0.98046875,0.29003906,0.03125,0.34375,0.78125,0.09375,0.0,0.0,0.0
1664548086758,-0.9746094,0.27539062,0.029296875,-0.1875,0.21875,-0.09375,0.0,0.0,0.0
1664548086789,-0.9824219,0.2939453,0.04296875,0.1875,0.78125,-0.15625,0.0,0.0,0.0
1664548086852,-0.9814453,0.2861328,0.029296875,0.46875,0.65625,-0.34375,0.0,0.0,0.0
1664548086923,-0.9716797,0.2919922,0.029296875,0.53125,-0.1875,-0.53125,0.0,0.0,0.0
1664548086926,-0.9746094,0.27929688,0.025390625,3.34375,-0.9375,-0.28125,0.0,0.0,0.0
1664548086971,-0.9814453,0.29492188,0.043945312,3.96875,-0.375,0.625,-71.5625,-32.1875,-103.25
1664548086998,-0.9736328,0.2998047,0.045898438,1.15625,0.53125,-0.40625,0.0,0.0,0.0
1664548087029,-0.9824219,0.2841797,0.03125,3.28125,-0.4375,-0.65625,0.0,0.0,0.0
1664548087090,-0.9873047,0.2939453,0.028320312,1.9375,-1.0625,-1.5,0.0,0.0,0.0
1664548087121,-0.9667969,0.29296875,0.024414062,3.34375,-2.15625,-0.96875,0.0,0.0,0.0
1664548087152,-0.9609375,0.29296875,0.030273438,3.96875,-1.59375,-0.09375,0.0,0.0,0.0
1664548087211,-0.9794922,0.2919922,0.029296875,4.375,-0.75,0.375,0.0,0.0,0.0
1664548087240,-0.9794922,0.29101562,0.032226562,2.5,-0.5625,0.25,0.0,0.0,0.0
1664548087268,-0.9814453,0.28027344,0.032226562,3.84375,-0.875,0.15625,0.0,0.0,0.0
1664548087330,-0.98046875,0.2763672,0.048828125,3.59375,-0.8125,-0.03125,0.0,0.0,0.0
1664548087358,-0.96777344,0.2919922,0.026367188,3.03125,-0.8125,-0.21875,0.0,0.0,0.0
1664548087390,-0.97753906,0.2763672,0.041992188,2.3125,0.03125,-0.03125,0.0,0.0,0.0
1664548087453,-0.9814453,0.2734375,0.052734375,2.1875,0.53125,0.21875,-72.875,-31.625,-103.375
1664548087483,-0.9814453,0.28027344,0.041992188,2.625,0.53125,0.25,0.0,0.0,0.0
1664548087510,-0.97265625,0.2763672,0.025390625,1.625,1.375,-0.21875,0.0,0.0,0.0
1664548087567,-0.9765625,0.3017578,0.0234375,0.78125,1.3125,-0.40625,0.0,0.0,0.0
1664548087601,-0.9746094,0.29003906,0.0234375,0.40625,2.0625,0.03125,0.0,0.0,0.0
1664548087628,-0.9628906,0.28027344,0.03125,-0.1875,1.5,-0.09375,0.0,0.0,0.0
1664548087688,-0.9667969,0.2783203,0.022460938,0.0625,0.96875,0.09375,0.0,0.0,0.0
1664548087718,-0.9736328,0.2763672,0.015625,0.21875,1.1875,0.25,0.0,0.0,0.0
1664548087749,-0.9785156,0.2890625,0.026367188,1.03125,1.5625,0.75,0.0,0.0,0.0
1664548087806,-0.9765625,0.29101562,0.0107421875,-1.34375,1.09375,0.375,0.0,0.0,0.0
1664548087840,-0.98339844,0.28222656,0.020507812,-1.90625,0.84375,0.09375,0.0,0.0,0.0
1664548087871,-0.96972656,0.28222656,0.026367188,-0.4375,0.09375,0.15625,0.0,0.0,0.0
1664548087929,-0.97753906,0.29296875,0.01953125,0.71875,0.40625,0.3125,0.0,0.0,0.0
1664548087960,-0.9707031,0.29589844,0.0126953125,-0.9375,0.59375,0.21875,-71.5625,-31.1875,-103.875
1664548087990,-0.9736328,0.2861328,0.022460938,-0.875,1.03125,0.5625,0.0,0.0,0.0
1664548088050,-0.9824219,0.28808594,0.021484375,-1.78125,1.03125,0.6875,0.0,0.0,0.0
1664548088085,-0.9794922,0.27441406,0.026367188,-0.6875,0.71875,0.3125,0.0,0.0,0.0
1664548088115,-0.9824219,0.2890625,0.01953125,1.46875,0.28125,0.25,0.0,0.0,0.0
1664548088169,-0.9736328,0.28027344,0.015625,1.40625,0.59375,0.75,0.0,0.0,0.0
1664548088200,-0.97558594,0.2890625,0.021484375,-0.125,0.96875,0.3125,0.0,0.0,0.0
1664548088234,-0.9667969,0.29296875,0.020507812,0.1875,0.53125,0.3125,0.0,0.0,0.0
1664548088292,-0.9794922,0.2890625,0.015625,0.0625,1.5,0.5625,0.0,0.0,0.0
1664548088325,-0.97558594,0.29492188,0.016601562,-0.125,0.84375,-0.03125,0.0,0.0,0.0
1664548088349,-0.97753906,0.29003906,0.0087890625,0.21875,0.59375,0.03125,0.0,0.0,0.0
1664548088441,-0.9824219,0.29785156,0.021484375,0.53125,0.65625,0.15625,0.0,0.0,0.0
1664548088444,-0.96484375,0.29882812,0.013671875,-0.375,0.78125,-0.15625,-70.9375,-29.0625,-104.3125
1664548088499,-0.97753906,0.29492188,0.016601562,-0.3125,0.15625,-0.53125,0.0,0.0,0.0
1664548088528,-0.97753906,0.2939453,0.020507812,-0.375,0.09375,-0.21875,0.0,0.0,0.0
1664548088560,-0.9667969,0.28515625,0.0029296875,0.71875,1.125,-0.15625,0.0,0.0,0.0
1664548088709,-0.9794922,0.29003906,0.0048828125,0.21875,0.59375,-0.28125,0.0,0.0,0.0
1664548088712,-0.97558594,0.28222656,0.009765625,-0.625,0.15625,-0.15625,0.0,0.0,0.0
1664548088715,-0.98535156,0.28515625,0.0107421875,0.0625,0.09375,-0.21875,0.0,0.0,0.0
1664548088718,-0.9736328,0.29589844,0.021484375,0.40625,0.15625,-0.21875,0.0,0.0,0.0
1664548088774,-0.98828125,0.2919922,0.0107421875,0.34375,0.40625,-0.15625,0.0,0.0,0.0
1664548088818,-0.9794922,0.28320312,0.0146484375,0.0625,0.09375,-0.21875,0.0,0.0,0.0
1664548088844,-0.98046875,0.27148438,0.025390625,0.1875,0.03125,-0.40625,0.0,0.0,0.0
1664548088893,-0.98046875,0.27734375,0.005859375,-0.0625,-0.25,-0.40625,0.0,0.0,0.0
1664548088927,-0.9814453,0.28222656,0.022460938,0.71875,-0.3125,-0.15625,0.0,0.0,0.0
1664548088985,-0.96777344,0.2919922,-0.00390625,0.46875,-0.1875,0.03125,-71.5625,-31.1875,-104.3125
1664548089009,-0.98046875,0.28808594,0.015625,-0.3125,-0.09375,-0.09375,0.0,0.0,0.0
1664548089049,-0.98046875,0.28027344,0.0126953125,0.125,-0.03125,0.03125,0.0,0.0,0.0
1664548089074,-0.98535156,0.28320312,0.018554688,1.15625,0.28125,0.3125,0.0,0.0,0.0
1664548089136,-0.9716797,0.28027344,0.0107421875,0.65625,0.78125,1.125,0.0,0.0,0.0
1664548089187,-0.97265625,0.28027344,0.016601562,0.46875,1.125,2.09375,0.0,0.0,0.0
1664548089189,-0.98535156,0.26953125,0.02734375,-1.0,1.9375,1.90625,0.0,0.0,0.0
1664548089271,-0.9951172,0.29589844,0.01953125,-1.09375,0.28125,0.6875,0.0,0.0,0.0
1664548089307,-0.9824219,0.27441406,0.029296875,0.21875,-0.25,0.9375,0.0,0.0,0.0
1664548089333,-0.9863281,0.27734375,0.00390625,1.28125,0.84375,0.75,0.0,0.0,0.0
1664548089371,-0.97265625,0.30273438,0.0029296875,2.1875,0.90625,0.4375,0.0,0.0,0.0
1664548089405,-0.96875,0.30371094,-0.0029296875,2.4375,-0.8125,0.375,0.0,0.0,0.0
1664548089471,-0.9658203,0.31445312,-0.0068359375,1.875,-0.375,0.15625,-72.75,-30.4375,-103.875
1664548089501,-0.9658203,0.3125,-0.0107421875,3.09375,0.40625,0.6875,0.0,0.0,0.0
1664548089520,-0.9667969,0.29492188,0.0,2.96875,0.03125,1.1875,0.0,0.0,0.0
1664548089551,-0.97265625,0.31054688,0.00390625,3.09375,0.53125,1.25,0.0,0.0,0.0
1664548089610,-0.9638672,0.31933594,0.0107421875,2.8125,0.78125,1.4375,0.0,0.0,0.0
1664548089641,-0.9785156,0.31054688,0.0048828125,-1.0625,1.375,1.0,0.0,0.0,0.0
1664548089673,-0.97558594,0.30078125,0.009765625,-3.3125,1.125,0.03125,0.0,0.0,0.0
1664548089733,-0.96972656,0.30273438,-0.0107421875,-6.0625,1.3125,-1.3125,0.0,0.0,0.0
1664548089766,-0.9707031,0.30273438,0.013671875,-6.46875,0.84375,-1.125,0.0,0.0,0.0
1664548089792,-0.9716797,0.27246094,0.0087890625,-4.65625,1.25,0.21875,0.0,0.0,0.0
1664548089853,-0.98339844,0.26757812,0.0146484375,-1.78125,3.09375,-0.03125,0.0,0.0,0.0
1664548089880,-0.96972656,0.2861328,0.022460938,-0.375,1.6875,-0.40625,0.0,0.0,0.0
1664548089906,-0.9736328,0.2890625,0.00390625,-0.5,1.5,-1.25,0.0,0.0,0.0
1664548090003,-0.96875,0.3076172,-0.0107421875,-0.0625,1.1875,-1.375,-71.375,-31.625,-103.6875
1664548090044,-0.9716797,0.31445312,-0.0087890625,0.59375,1.03125,-0.90625,0.0,0.0,0.0
1664548090066,-0.96777344,0.3017578,-0.0087890625,1.03125,2.46875,-0.40625,0.0,0.0,0.0
1664548090122,-0.97265625,0.29296875,-0.0068359375,1.75,2.78125,-0.46875,0.0,0.0,0.0
1664548090129,-0.9736328,0.29785156,-0.0126953125,2.375,2.53125,-0.46875,0.0,0.0,0.0
1664548090152,-0.9746094,0.2919922,-0.009765625,2.96875,2.25,-0.65625,0.0,0.0,0.0
1664548090207,-0.9716797,0.2861328,-0.0068359375,3.53125,2.125,-1.0625,0.0,0.0,0.0
1664548090257,-0.9667969,0.29589844,-0.0107421875,3.53125,2.125,-0.90625,0.0,0.0,0.0
1664548090292,-0.9785156,0.27929688,-0.029296875,2.5,2.84375,-0.65625,0.0,0.0,0.0
1664548090346,-0.9824219,0.265625,-0.021484375,4.3125,1.9375,-0.65625,0.0,0.0,0.0
1664548090379,-0.9824219,0.28808594,-0.0078125,3.15625,0.09375,-1.03125,0.0,0.0,0.0
1664548090405,-0.9667969,0.2763672,-0.024414062,4.09375,0.78125,-0.28125,0.0,0.0,0.0
1664548090467,-0.98046875,0.2734375,-0.015625,3.28125,0.71875,0.15625,-72.0,-32.1875,-105.375
1664548090485,-0.9902344,0.28027344,-0.01171875,4.5,-0.03125,0.21875,0.0,0.0,0.0
1664548090526,-0.9716797,0.2861328,-0.015625,2.5625,0.15625,0.03125,0.0,0.0,0.0
1664548090584,-0.9794922,0.28808594,-0.01171875,3.34375,0.15625,0.21875,0.0,0.0,0.0
1664548090613,-0.96484375,0.2919922,-0.0146484375,0.90625,0.78125,0.3125,0.0,0.0,0.0
1664548090646,-0.98535156,0.2841797,-0.0087890625,2.0,0.28125,1.0,0.0,0.0,0.0
1664548090723,-0.9736328,0.28320312,-0.017578125,0.78125,1.03125,0.4375,0.0,0.0,0.0
1664548090724,-0.9638672,0.28125,-0.021484375,0.90625,2.0,0.8125,0.0,0.0,0.0
1664548090748,-0.97265625,0.2939453,-0.01171875,1.09375,2.0,1.0625,0.0,0.0,0.0
1664548090816,-0.96972656,0.28222656,-0.055664062,0.0625,1.375,0.9375,0.0,0.0,0.0
1664548090853,-0.9794922,0.27734375,-0.028320312,0.1875,1.125,0.9375,0.0,0.0,0.0
1664548090941,-0.96777344,0.29492188,-0.03515625,0.71875,1.3125,1.0625,0.0,0.0,0.0
1664548090948,-0.96875,0.29296875,-0.018554688,0.84375,1.6875,0.9375,-72.125,-31.3125,-105.0625
1664548090991,-0.97558594,0.28515625,-0.022460938,1.28125,1.4375,0.9375,0.0,0.0,0.0
1664548091021,-0.9746094,0.29589844,-0.015625,1.09375,0.84375,1.0625,0.0,0.0,0.0
1664548091050,-0.9707031,0.29882812,-0.03515625,0.71875,1.03125,1.125,0.0,0.0,0.0
1664548091080,-0.9785156,0.30078125,-0.034179688,0.125,1.375,0.875,0.0,0.0,0.0
1664548091143,-0.9814453,0.28808594,-0.03125,0.28125,1.6875,0.6875,0.0,0.0,0.0
1664548091166,-0.9765625,0.30078125,-0.0234375,0.84375,0.78125,0.75,0.0,0.0,0.0
1664548091203,-0.9707031,0.29589844,-0.0390625,0.34375,1.03125,0.4375,0.0,0.0,0.0
1664548091257,-0.9863281,0.29785156,-0.045898438,0.78125,0.65625,0.15625,0.0,0.0,0.0
1664548091285,-0.96972656,0.29785156,-0.03515625,0.46875,-0.09375,0.21875,0.0,0.0,0.0
1664548091329,-0.9658203,0.29882812,-0.033203125,0.125,0.59375,0.21875,0.0,0.0,0.0
1664548091357,-0.9716797,0.29785156,-0.053710938,0.71875,0.09375,0.15625,0.0,0.0,0.0
1664548091413,-0.96875,0.30078125,-0.045898438,-0.375,0.21875,0.21875,0.0,0.0,0.0
1664548091467,-0.97753906,0.2919922,-0.038085938,0.21875,0.03125,-0.15625,-72.875,-31.0,-106.5625
1664548091468,-0.9746094,0.28515625,-0.040039062,0.21875,-0.3125,-0.15625,0.0,0.0,0.0
1664548091526,-0.9736328,0.29101562,-0.034179688,2.1875,-0.625,0.03125,0.0,0.0,0.0
1664548091559,-0.96972656,0.29882812,-0.030273438,0.78125,-0.8125,0.09375,0.0,0.0,0.0
1664548091586,-0.9667969,0.2998047,-0.026367188,0.96875,-1.0,-0.34375,0.0,0.0,0.0
1664548091655,-0.9716797,0.2998047,-0.029296875,0.0,-0.9375,-0.03125,0.0,0.0,0.0
1664548091683,-0.9746094,0.28515625,-0.022460938,0.40625,-0.5,-0.03125,0.0,0.0,0.0
1664548091736,-0.9785156,0.29101562,-0.036132812,0.65625,-0.875,-0.34375,0.0,0.0,0.0
1664548091770,-0.97753906,0.28222656,-0.034179688,2.3125,-0.8125,0.5625,0.0,0.0,0.0
1664548091797,-0.96972656,0.29296875,-0.02734375,2.4375,-0.375,0.6875,0.0,0.0,0.0
1664548091866,-0.9667969,0.30273438,-0.026367188,1.8125,0.03125,0.21875,0.0,0.0,0.0
1664548091909,-0.9746094,0.30566406,-0.048828125,-0.4375,-0.625,-0.21875,0.0,0.0,0.0
1664548091935,-0.9746094,0.29882812,-0.03125,-1.96875,-0.4375,-0.09375,-72.75,-31.4375,-105.625
1664548091987,-0.96972656,0.2919922,-0.038085938,-1.21875,0.09375,0.15625,0.0,0.0,0.0
1664548092006,-0.97753906,0.2861328,-0.022460938,0.46875,-0.4375,0.03125,0.0,0.0,0.0
1664548092037,-0.96972656,0.31054688,-0.043945312,0.28125,0.40625,0.5625,0.0,0.0,0.0
1664548092103,-0.9765625,0.2939453,-0.047851562,1.625,1.25,0.875,0.0,0.0,0.0
1664548092128,-0.9794922,0.29296875,-0.046875,0.96875,1.09375,0.3125,0.0,0.0,0.0
1664548092159,-0.97753906,0.29101562,-0.047851562,-1.0,0.59375,-0.59375,0.0,0.0,0.0
1664548092199,-0.9716797,0.29589844,-0.0234375,-1.15625,-0.1875,-0.53125,0.0,0.0,0.0
1664548092263,-0.9736328,0.29003906,-0.044921875,-0.125,0.53125,-0.21875,0.0,0.0,0.0
1664548092308,-0.9746094,0.30078125,-0.026367188,0.53125,0.09375,-0.15625,0.0,0.0,0.0
1664548092331,-0.97558594,0.2939453,-0.037109375,0.1875,-0.6875,-0.40625,0.0,0.0,0.0
1664548092374,-0.96875,0.29492188,-0.045898438,-0.9375,-0.8125,-0.53125,0.0,0.0,0.0
1664548092407,-0.97558594,0.30078125,-0.028320312,-0.625,-0.8125,-0.09375,0.0,0.0,0.0
1664548092476,-0.97265625,0.30273438,-0.036132812,-1.15625,-0.5,-0.15625,-72.4375,-32.0625,-106.125
1664548092523,-0.9716797,0.28320312,-0.044921875,-0.6875,-0.875,-0.28125,0.0,0.0,0.0
1664548092531,-0.9824219,0.2919922,-0.021484375,-0.5625,-0.625,-0.84375,0.0,0.0,0.0
1664548092621,-0.9746094,0.2890625,-0.044921875,0.0,-1.0625,-0.65625,0.0,0.0,0.0
1664548092629,-0.97753906,0.29882812,-0.05078125,0.53125,-0.8125,-0.53125,0.0,0.0,0.0
1664548092648,-0.9667969,0.30078125,-0.028320312,0.28125,-0.75,-0.53125,0.0,0.0,0.0
1664548092698,-0.9736328,0.29882812,-0.02734375,0.0,-0.75,-0.65625,0.0,0.0,0.0
1664548092727,-0.9765625,0.30664062,-0.041992188,-0.5,-1.0,-0.59375,0.0,0.0,0.0
1664548092769,-0.9716797,0.29003906,-0.021484375,-0.5,-0.9375,-0.53125,0.0,0.0,0.0
1664548092844,-0.9736328,0.29589844,-0.036132812,-1.0,-0.5625,-0.78125,0.0,0.0,0.0
1664548092852,-0.97265625,0.29296875,-0.021484375,-1.0,-0.625,-0.46875,0.0,0.0,0.0
1664548092883,-0.9736328,0.27734375,-0.018554688,-1.0,-0.6875,-0.96875,0.0,0.0,0.0
1664548092938,-0.96777344,0.27539062,-0.0234375,0.78125,-1.46875,-0.96875,-71.5625,-30.125,-104.625
1664548092998,-0.9824219,0.29003906,-0.022460938,2.375,-1.65625,-0.65625,0.0,0.0,0.0
1664548093001,-0.9716797,0.29589844,-0.026367188,1.9375,-1.25,-0.71875,0.0,0.0,0.0
1664548093061,-0.9824219,0.29882812,-0.034179688,1.53125,-1.3125,-0.53125,0.0,0.0,0.0
1664548093089,-0.97753906,0.29492188,-0.0234375,-0.125,-1.1875,-1.03125,0.0,0.0,0.0
1664548093126,-0.97558594,0.29101562,-0.032226562,-1.0,-1.71875,-1.0625,0.0,0.0,0.0
1664548093176,-0.97753906,0.2783203,-0.016601562,-1.28125,-1.375,-1.1875,0.0,0.0,0.0
1664548093209,-0.97753906,0.28320312,-0.017578125,-0.5625,-1.59375,-1.25,0.0,0.0,0.0
1664548093271,-0.9902344,0.2890625,-0.029296875,-0.4375,-2.03125,-1.1875,0.0,0.0,0.0
1664548093333,-0.98339844,0.2939453,-0.033203125,-0.8125,-1.90625,-1.375,0.0,0.0,0.0
1664548093363,-0.9658203,0.29101562,-0.022460938,-2.15625,-1.53125,-1.5,0.0,0.0,0.0
1664548093380,-0.97753906,0.29003906,-0.01171875,-1.84375,-1.53125,-2.1875,0.0,0.0,0.0
1664548093457,-0.97265625,0.30566406,-0.016601562,-3.71875,-2.46875,-2.40625,0.0,0.0,0.0
1664548093498,-0.97558594,0.2890625,-0.0126953125,-4.71875,-3.8125,-1.5625,-72.875,-29.1875,-104.125
1664548093524,-0.9746094,0.2861328,-0.020507812,-4.09375,-3.5625,-1.0625,0.0,0.0,0.0
1664548093540,-0.9746094,0.27148438,-0.0029296875,-4.21875,-2.65625,-0.09375,0.0,0.0,0.0
1664548093579,-0.98339844,0.25878906,0.0,1.15625,-1.71875,0.15625,0.0,0.0,0.0
1664548093602,-0.9892578,0.23925781,0.030273438,3.65625,-1.59375,-0.09375,0.0,0.0,0.0
1664548093676,-0.98339844,0.2705078,0.017578125,2.6875,-2.40625,-0.59375,0.0,0.0,0.0
1664548093687,-0.98339844,0.26660156,0.013671875,4.6875,-2.21875,-0.34375,0.0,0.0,0.0
1664548093747,-0.97558594,0.25683594,0.013671875,2.1875,-1.46875,-0.34375,0.0,0.0,0.0
1664548093776,-0.9921875,0.26757812,-0.001953125,1.09375,-2.34375,-0.09375,0.0,0.0,0.0
1664548093827,-0.9824219,0.27148438,0.0068359375,2.25,-2.03125,0.15625,0.0,0.0,0.0
1664548093847,-0.98339844,0.28320312,0.018554688,3.40625,-1.78125,0.3125,0.0,0.0,0.0
1664548093903,-0.9736328,0.27246094,0.0068359375,1.625,-1.53125,0.21875,0.0,0.0,0.0
1664548093929,-0.97753906,0.265625,0.015625,1.6875,-0.75,-0.03125,-72.125,-31.625,-104.4375
1664548093958,-0.97265625,0.26660156,0.0029296875,1.8125,-1.1875,0.15625,0.0,0.0,0.0
1664548094017,-0.9824219,0.28027344,-0.0087890625,1.5625,-1.78125,-0.09375,0.0,0.0,0.0
1664548094051,-0.9736328,0.28125,0.0,0.90625,-1.4375,0.21875,0.0,0.0,0.0
1664548094084,-0.98046875,0.28125,0.0029296875,0.0,-0.4375,0.4375,0.0,0.0,0.0
1664548094159,-0.9951172,0.2861328,0.02734375,-1.34375,-0.5625,0.03125,0.0,0.0,0.0
1664548094184,-0.96972656,0.26660156,0.018554688,-1.84375,-0.75,0.15625,0.0,0.0,0.0
1664548094216,-0.98046875,0.27929688,0.013671875,-2.28125,-1.0625,-0.03125,0.0,0.0,0.0
1664548094268,-0.9736328,0.27734375,0.0107421875,-4.03125,-1.1875,-0.46875,0.0,0.0,0.0
1664548094286,-0.9824219,0.27441406,0.022460938,-4.21875,-1.3125,-0.59375,0.0,0.0,0.0
1664548094322,-0.96972656,0.27148438,0.024414062,-2.6875,-1.46875,-0.03125,0.0,0.0,0.0
1664548094379,-0.97265625,0.26953125,0.030273438,-1.40625,-0.5625,0.21875,0.0,0.0,0.0
1664548094426,-0.9628906,0.2705078,0.009765625,-0.4375,-1.0625,-0.21875,0.0,0.0,0.0
1664548094445,-0.984375,0.26757812,0.041015625,-0.125,-0.8125,0.09375,-71.375,-31.625,-104.75
1664548094518,-0.96875,0.24511719,0.032226562,0.28125,0.09375,0.03125,0.0,0.0,0.0
1664548094541,-0.9736328,0.28027344,0.018554688,-0.25,0.15625,-0.03125,0.0,0.0,0.0
1664548094584,-0.9746094,0.27734375,0.0234375,-0.3125,0.28125,-0.28125,0.0,0.0,0.0
1664548094644,-0.9765625,0.27734375,0.01171875,0.59375,1.1875,0.09375,0.0,0.0,0.0
1664548094661,-0.97753906,0.27929688,0.0234375,0.53125,0.59375,0.15625,0.0,0.0,0.0
1664548094697,-0.99121094,0.2734375,0.0078125,0.53125,0.34375,0.21875,0.0,0.0,0.0
1664548094741,-0.99121094,0.28027344,0.013671875,0.46875,0.46875,-0.21875,0.0,0.0,0.0
1664548094769,-0.9765625,0.27246094,0.01171875,0.40625,0.53125,0.03125,0.0,0.0,0.0
1664548094815,-0.9794922,0.28515625,0.0068359375,0.0,0.46875,-0.09375,0.0,0.0,0.0
1664548094863,-0.97753906,0.26367188,0.0078125,-0.8125,0.71875,-0.15625,0.0,0.0,0.0
1664548094896,-0.98828125,0.26660156,0.0087890625,0.34375,0.84375,0.03125,0.0,0.0,0.0
1664548094925,-0.97265625,0.27539062,0.01171875,0.0625,0.71875,-0.21875,-71.5625,-31.1875,-102.9375
1664548094993,-0.98046875,0.27734375,0.01171875,0.125,1.09375,0.09375,0.0,0.0,0.0
1664548095028,-0.9814453,0.28222656,-0.001953125,0.1875,1.125,-0.03125,0.0,0.0,0.0
1664548095063,-0.98046875,0.2705078,0.00390625,-0.625,0.65625,0.03125,0.0,0.0,0.0
1664548095110,-0.98828125,0.27539062,-0.0107421875,0.0,0.40625,-0.03125,0.0,0.0,0.0
1664548095148,-0.9824219,0.28027344,-0.001953125,0.0625,0.28125,-0.03125,0.0,0.0,0.0
1664548095176,-0.9863281,0.26953125,0.026367188,0.84375,0.09375,0.21875,0.0,0.0,0.0
1664548095216,-0.97753906,0.27929688,0.00390625,0.21875,-0.25,0.15625,0.0,0.0,0.0
1664548095296,-0.97265625,0.265625,0.018554688,0.125,-0.03125,0.4375,0.0,0.0,0.0
1664548095297,-0.9716797,0.26367188,0.00390625,0.59375,0.40625,0.5,0.0,0.0,0.0
1664548095357,-0.98046875,0.27246094,0.01953125,1.09375,-0.1875,0.75,0.0,0.0,0.0
1664548095369,-0.9794922,0.26757812,0.009765625,0.90625,0.03125,0.625,0.0,0.0,0.0
1664548095400,-0.98828125,0.27539062,0.0087890625,0.78125,-0.03125,0.5625,0.0,0.0,0.0
1664548095480,-0.9892578,0.27539062,0.01171875,0.21875,-0.03125,0.75,-71.25,-30.6875,-103.875
1664548095536,-0.9863281,0.27539062,9.765625E-4,0.21875,0.03125,0.5,0.0,0.0,0.0
1664548095565,-0.9824219,0.28222656,0.022460938,0.0625,0.09375,0.5625,0.0,0.0,0.0
1664548095654,-0.9746094,0.27734375,0.01171875,0.0625,0.28125,0.75,0.0,0.0,0.0
1664548095684,-0.9824219,0.27441406,0.022460938,0.1875,0.65625,0.5,0.0,0.0,0.0
1664548095706,-0.9746094,0.28808594,0.0126953125,0.21875,0.09375,0.4375,0.0,0.0,0.0
1664548095753,-0.9716797,0.2734375,0.005859375,-0.1875,-0.03125,0.3125,0.0,0.0,0.0
1664548095797,-0.9814453,0.29003906,0.020507812,0.0625,0.09375,0.375,0.0,0.0,0.0
1664548095842,-0.97753906,0.2861328,-0.005859375,0.21875,0.34375,0.4375,0.0,0.0,0.0
1664548095880,-0.9736328,0.28515625,0.0068359375,0.1875,0.46875,0.5,0.0,0.0,0.0
1664548095911,-0.97558594,0.27929688,0.0126953125,0.0,0.46875,0.21875,0.0,0.0,0.0
1664548095940,-0.97558594,0.2763672,0.0126953125,0.34375,0.34375,0.15625,0.0,0.0,0.0
1664548095997,-0.96972656,0.28222656,-9.765625E-4,0.53125,0.59375,0.4375,-72.125,-30.5625,-103.6875
1664548096024,-0.97753906,0.28027344,0.00390625,0.0,0.53125,0.15625,0.0,0.0,0.0
1664548096051,-0.9707031,0.28027344,-0.0126953125,0.1875,0.71875,0.09375,0.0,0.0,0.0
1664548096076,-0.98046875,0.28027344,-0.0068359375,0.0,0.78125,0.25,0.0,0.0,0.0
1664548096101,-0.9785156,0.2841797,-0.00390625,0.34375,1.03125,0.03125,0.0,0.0,0.0
1664548096115,-0.9794922,0.28515625,-0.001953125,0.1875,0.71875,0.25,0.0,0.0,0.0
1664548096202,-0.9794922,0.28320312,9.765625E-4,-0.75,0.78125,-0.03125,0.0,0.0,0.0
1664548096231,-0.9794922,0.27441406,0.001953125,-0.25,0.78125,0.21875,0.0,0.0,0.0
1664548096250,-0.9814453,0.27441406,-0.001953125,0.59375,0.40625,0.3125,0.0,0.0,0.0
1664548096296,-0.9785156,0.27929688,-0.001953125,-0.1875,0.59375,0.375,0.0,0.0,0.0
1664548096327,-0.9707031,0.2861328,-0.0029296875,-0.1875,0.34375,0.25,0.0,0.0,0.0
1664548096361,-0.97753906,0.27929688,-0.005859375,-0.8125,-0.03125,-0.09375,0.0,0.0,0.0
1664548096417,-0.9794922,0.27734375,-0.0126953125,-0.1875,-0.1875,0.03125,0.0,0.0,0.0
1664548096468,-0.97753906,0.28125,0.0029296875,-0.0625,-0.09375,0.03125,-71.5625,-30.6875,-103.25
1664548096510,-0.9794922,0.2841797,-0.0029296875,0.0,-0.09375,0.09375,0.0,0.0,0.0
1664548096563,-0.97265625,0.28710938,9.765625E-4,-0.125,-0.15625,0.25,0.0,0.0,0.0
1664548096591,-0.98339844,0.2783203,0.0029296875,-0.0625,-0.03125,0.09375,0.0,0.0,0.0
1664548096623,-0.9824219,0.28320312,0.001953125,0.1875,-0.15625,-0.09375,0.0,0.0,0.0
1664548096679,-0.9785156,0.27929688,0.0107421875,0.0625,-0.3125,-0.09375,0.0,0.0,0.0
1664548096714,-0.9785156,0.27929688,0.005859375,0.34375,-0.25,0.09375,0.0,0.0,0.0
1664548096725,-0.98535156,0.2861328,-0.005859375,-0.125,-0.3125,-0.03125,0.0,0.0,0.0
1664548096776,-0.97753906,0.2861328,-9.765625E-4,0.0625,-0.25,-0.03125,0.0,0.0,0.0
1664548096820,-0.9716797,0.28320312,0.0,0.0,-0.5625,-0.21875,0.0,0.0,0.0
1664548096849,-0.9785156,0.2783203,0.013671875,0.21875,-0.625,-0.09375,0.0,0.0,0.0
1664548096903,-0.984375,0.28515625,-9.765625E-4,0.0,-0.1875,-0.03125,0.0,0.0,0.0
1664548096946,-0.9716797,0.28515625,0.0068359375,0.0,-0.15625,0.03125,-72.125,-31.0,-104.125
1664548096977,-0.97753906,0.27539062,0.0126953125,0.125,-0.25,0.09375,0.0,0.0,0.0
1664548097025,-0.98046875,0.28320312,0.009765625,0.46875,0.03125,0.375,0.0,0.0,0.0
1664548097047,-0.9794922,0.27929688,9.765625E-4,0.0,-0.09375,-0.03125,0.0,0.0,0.0
1664548097077,-0.9765625,0.2783203,0.015625,0.21875,-0.5,-0.09375,0.0,0.0,0.0
1664548097146,-0.9814453,0.27734375,-0.0029296875,0.125,-1.25,-0.59375,0.0,0.0,0.0
1664548097167,-0.9814453,0.28222656,-0.001953125,0.84375,-2.28125,-0.21875,0.0,0.0,0.0
1664548097207,-0.9658203,0.2841797,0.0107421875,-0.125,-1.25,-0.34375,0.0,0.0,0.0
1664548097264,-0.96972656,0.296875,0.005859375,-0.5625,-0.09375,-0.03125,0.0,0.0,0.0
1664548097286,-0.9814453,0.28320312,0.0087890625,-1.34375,-0.09375,-0.28125,0.0,0.0,0.0
1664548097318,-0.98535156,0.27539062,0.0107421875,-1.21875,-0.875,-0.53125,0.0,0.0,0.0
1664548097396,-0.98828125,0.28222656,0.0078125,-1.21875,-1.4375,-0.65625,0.0,0.0,0.0
1664548097476,-0.9824219,0.28125,0.018554688,0.0,-1.1875,-0.34375,0.0,0.0,0.0
1664548097479,-0.98535156,0.28125,0.022460938,-0.4375,-0.9375,-0.28125,-72.3125,-31.1875,-103.875
1664548097510,-0.9824219,0.27246094,0.0029296875,0.125,-0.75,-0.21875,0.0,0.0,0.0
1664548097557,-0.9863281,0.28222656,0.013671875,-0.5,-0.5625,-0.15625,0.0,0.0,0.0
1664548097560,-0.9746094,0.2763672,0.0107421875,-0.6875,-0.6875,-0.34375,0.0,0.0,0.0
1664548097629,-0.9794922,0.27734375,0.0048828125,-1.0,-1.0,-0.65625,0.0,0.0,0.0
1664548097660,-0.97558594,0.28027344,0.021484375,-1.21875,-0.8125,-0.65625,0.0,0.0,0.0
1664548097676,-0.9794922,0.28320312,0.01953125,-0.6875,-0.5625,-0.34375,0.0,0.0,0.0
1664548097752,-0.98535156,0.2734375,0.0146484375,0.0625,-0.15625,-0.09375,0.0,0.0,0.0
1664548097793,-0.97558594,0.27246094,0.029296875,-0.4375,-0.8125,-0.40625,0.0,0.0,0.0
1664548097827,-0.9716797,0.26367188,0.001953125,0.21875,-0.4375,-0.15625,0.0,0.0,0.0
1664548097884,-0.9814453,0.28027344,0.024414062,1.21875,-0.1875,-0.15625,0.0,0.0,0.0
1664548097911,-0.9794922,0.27246094,0.026367188,-0.625,-0.3125,-0.40625,0.0,0.0,0.0
1664548097927,-0.98046875,0.2763672,0.01953125,0.0,-0.375,-0.34375,-70.8125,-30.5625,-104.4375
1664548097981,-0.9765625,0.27246094,0.032226562,-0.3125,-0.15625,-0.53125,0.0,0.0,0.0
1664548098041,-0.9785156,0.26953125,0.024414062,-0.3125,-0.15625,-0.59375,0.0,0.0,0.0
1664548098089,-0.9785156,0.27148438,0.021484375,1.46875,0.15625,-0.09375,0.0,0.0,0.0
1664548098143,-0.98046875,0.29003906,0.005859375,2.1875,-0.1875,-0.46875,0.0,0.0,0.0
1664548098171,-0.9765625,0.28125,0.017578125,2.1875,-0.625,0.09375,0.0,0.0,0.0
1664548098207,-0.9873047,0.2841797,0.01171875,1.53125,-0.6875,-0.09375,0.0,0.0,0.0
1664548098279,-0.98535156,0.27734375,0.0078125,0.40625,-0.8125,-0.28125,0.0,0.0,0.0
1664548098299,-0.9736328,0.2763672,0.0107421875,-1.34375,-0.875,-0.59375,0.0,0.0,0.0
1664548098340,-0.97558594,0.26367188,0.017578125,-0.875,-0.8125,-0.21875,0.0,0.0,0.0
1664548098365,-0.9824219,0.27246094,0.0146484375,0.46875,-0.1875,0.25,0.0,0.0,0.0
1664548098395,-0.99609375,0.26171875,0.036132812,0.21875,-0.4375,0.25,0.0,0.0,0.0
1664548098414,-0.9785156,0.2607422,0.020507812,-0.375,-0.6875,-0.28125,0.0,0.0,0.0
1664548098458,-0.97265625,0.27441406,0.016601562,-1.09375,-0.6875,-0.46875,-72.3125,-31.1875,-103.875
1664548098491,-0.98046875,0.27148438,0.025390625,-1.09375,-0.4375,-0.53125,0.0,0.0,0.0
1664548098518,-0.97558594,0.27929688,0.0078125,-1.0,-0.15625,-0.40625,0.0,0.0,0.0
1664548098581,-0.97753906,0.27246094,0.0087890625,-0.75,0.40625,-0.53125,0.0,0.0,0.0
1664548098615,-0.9785156,0.27539062,0.0107421875,-0.4375,0.53125,-0.53125,0.0,0.0,0.0
1664548098649,-0.9785156,0.2734375,0.018554688,-0.9375,0.84375,-0.53125,0.0,0.0,0.0
1664548098707,-0.9794922,0.28222656,0.018554688,0.0,0.65625,-0.96875,0.0,0.0,0.0
1664548098728,-0.9785156,0.28125,0.013671875,-0.5625,0.09375,-0.65625,0.0,0.0,0.0
1664548098757,-0.98046875,0.27148438,0.01953125,-1.15625,0.03125,-0.34375,0.0,0.0,0.0
1664548098818,-0.9824219,0.2734375,0.017578125,-0.75,0.53125,-0.78125,0.0,0.0,0.0
1664548098871,-0.9814453,0.26757812,0.029296875,-1.40625,0.34375,-0.78125,0.0,0.0,0.0
1664548098917,-0.9873047,0.26660156,0.0126953125,1.40625,1.1875,-0.96875,0.0,0.0,0.0
1664548098967,-0.97558594,0.28222656,0.0048828125,2.5,0.34375,-0.09375,-73.8125,-31.4375,-102.9375
1664548098985,-0.9814453,0.2607422,0.018554688,0.84375,0.78125,-0.28125,0.0,0.0,0.0
1664548099030,-0.9892578,0.26757812,0.0107421875,-0.6875,0.96875,-0.84375,0.0,0.0,0.0
1664548099084,-0.98828125,0.25390625,0.020507812,-0.4375,-0.1875,-1.03125,0.0,0.0,0.0
1664548099114,-0.9736328,0.25390625,0.015625,0.59375,-0.4375,-1.03125,0.0,0.0,0.0
1664548099131,-0.9707031,0.2529297,0.020507812,2.625,-0.03125,-0.90625,0.0,0.0,0.0
1664548099184,-0.9814453,0.2705078,0.0,2.75,0.46875,-0.59375,0.0,0.0,0.0
1664548099216,-0.9814453,0.2763672,-0.013671875,2.5,0.96875,-0.40625,0.0,0.0,0.0
1664548099241,-0.9941406,0.2734375,0.0107421875,1.625,0.53125,-0.15625,0.0,0.0,0.0
1664548099302,-0.96972656,0.26757812,0.016601562,-0.75,-0.03125,-0.59375,0.0,0.0,0.0
1664548099327,-0.9794922,0.25585938,0.015625,-0.25,-0.375,-1.0625,0.0,0.0,0.0
1664548099357,-0.9824219,0.26464844,0.022460938,0.0625,-0.6875,-0.59375,0.0,0.0,0.0
1664548099425,-0.9892578,0.2578125,0.015625,0.1875,-0.375,-0.59375,0.0,0.0,0.0
1664548099452,-0.98339844,0.2529297,0.0126953125,-0.5625,-0.6875,-0.71875,-72.4375,-32.6875,-104.75
1664548099476,-0.9863281,0.25097656,0.02734375,0.0625,-0.9375,-1.03125,0.0,0.0,0.0
1664548099589,-0.9765625,0.2578125,0.017578125,-0.5625,-0.875,-0.21875,0.0,0.0,0.0
1664548099625,-0.98046875,0.25878906,0.021484375,-1.0,-0.15625,-0.65625,0.0,0.0,0.0
1664548099644,-0.9824219,0.25878906,0.0146484375,0.0625,-0.75,-0.46875,0.0,0.0,0.0
1664548099703,-0.98535156,0.2548828,0.01171875,1.03125,-0.75,-0.28125,0.0,0.0,0.0
1664548099714,-0.9902344,0.26660156,0.0126953125,1.09375,-0.5,-0.46875,0.0,0.0,0.0
1664548099748,-0.98046875,0.26660156,0.03125,1.03125,-0.75,-0.40625,0.0,0.0,0.0
1664548099801,-0.98046875,0.25878906,0.0234375,0.21875,-0.25,-0.40625,0.0,0.0,0.0
1664548099872,-0.98046875,0.26367188,0.022460938,0.40625,-0.15625,-0.59375,0.0,0.0,0.0
1664548099873,-0.9863281,0.26171875,0.017578125,0.21875,0.03125,-0.71875,0.0,0.0,0.0
1664548099897,-0.98339844,0.24902344,0.01171875,0.78125,-0.03125,-0.65625,0.0,0.0,0.0
1664548099927,-0.98046875,0.25097656,0.015625,1.28125,0.03125,-0.53125,-73.8125,-30.4375,-103.875
1664548099972,-0.9941406,0.2626953,0.017578125,1.53125,-0.15625,-0.65625,0.0,0.0,0.0
1664548100017,-0.9863281,0.25097656,0.015625,0.59375,-0.03125,-0.71875,0.0,0.0,0.0
1664548100076,-0.9892578,0.25390625,0.0126953125,0.53125,-0.03125,-0.59375,0.0,0.0,0.0
1664548100085,-0.98339844,0.25878906,-9.765625E-4,0.46875,0.21875,-0.40625,0.0,0.0,0.0
1664548100137,-0.98828125,0.25585938,0.0029296875,0.125,0.53125,-0.34375,0.0,0.0,0.0
1664548100169,-0.9873047,0.24316406,0.034179688,0.125,0.03125,-0.34375,0.0,0.0,0.0
1664548100236,-0.9921875,0.25195312,0.020507812,0.0,-0.375,-0.40625,0.0,0.0,0.0
1664548100297,-0.9892578,0.25683594,0.005859375,0.1875,-0.3125,-0.28125,0.0,0.0,0.0
1664548100298,-0.9863281,0.2626953,0.015625,-0.1875,-0.375,-0.03125,0.0,0.0,0.0
1664548100317,-0.9863281,0.2548828,0.005859375,-1.09375,-0.375,-0.15625,0.0,0.0,0.0
1664548100466,-0.9892578,0.26171875,0.0087890625,-1.28125,-0.25,-0.03125,0.0,0.0,0.0
1664548100468,-0.98535156,0.25585938,0.0126953125,-1.84375,-0.09375,-0.09375,0.0,0.0,0.0
1664548100471,-0.9941406,0.25195312,0.030273438,-1.21875,-0.15625,0.15625,-72.0,-31.75,-103.5625
1664548100499,-0.9814453,0.24609375,0.0234375,-0.9375,-0.1875,0.15625,0.0,0.0,0.0
1664548100532,-0.9892578,0.24511719,0.017578125,-1.46875,-0.375,0.15625,0.0,0.0,0.0
1664548100599,-0.9814453,0.24511719,0.024414062,-1.15625,-0.09375,0.09375,0.0,0.0,0.0
1664548100659,-0.9873047,0.24804688,0.015625,-0.9375,0.03125,0.21875,0.0,0.0,0.0
1664548100660,-0.9794922,0.25878906,0.022460938,-0.0625,-0.15625,0.8125,0.0,0.0,0.0
1664548100691,-0.9863281,0.2548828,0.028320312,-0.8125,0.21875,0.375,0.0,0.0,0.0
1664548100753,-0.98046875,0.25195312,0.01953125,0.0,-0.1875,0.4375,0.0,0.0,0.0
1664548100768,-0.9892578,0.2529297,0.009765625,0.65625,-0.1875,0.3125,0.0,0.0,0.0
1664548100797,-0.98828125,0.26171875,0.021484375,0.40625,0.09375,0.25,0.0,0.0,0.0
1664548100878,-0.9794922,0.25390625,0.013671875,0.28125,-0.09375,0.15625,0.0,0.0,0.0
1664548100912,-0.9765625,0.26464844,0.0107421875,0.28125,0.15625,0.25,0.0,0.0,0.0
1664548100959,-0.98339844,0.2578125,0.020507812,0.0,0.40625,0.15625,-73.5,-32.6875,-103.125
1664548101032,-0.98828125,0.25976562,0.017578125,0.125,0.15625,0.03125,0.0,0.0,0.0
1664548101057,-0.98046875,0.24902344,0.017578125,0.1875,-0.09375,0.03125,0.0,0.0,0.0
1664548101088,-0.98535156,0.25585938,0.009765625,0.0,-0.03125,-0.03125,0.0,0.0,0.0
1664548101208,-0.98339844,0.2578125,0.024414062,-0.0625,0.15625,-0.03125,0.0,0.0,0.0
1664548101210,-0.98339844,0.2607422,0.0234375,-0.1875,0.28125,-0.03125,0.0,0.0,0.0
1664548101211,-0.98339844,0.26171875,0.034179688,-0.1875,0.15625,-0.21875,0.0,0.0,0.0
1664548101215,-0.984375,0.25878906,0.0234375,-0.8125,0.21875,0.03125,0.0,0.0,0.0
1664548101246,-0.9902344,0.26171875,0.0234375,-0.75,0.28125,-0.03125,0.0,0.0,0.0
1664548101284,-0.98339844,0.25683594,0.0087890625,-0.5625,-0.03125,0.15625,0.0,0.0,0.0
1664548101344,-0.9824219,0.25097656,0.020507812,0.0,-0.03125,0.21875,0.0,0.0,0.0
1664548101382,-0.9814453,0.25195312,0.0068359375,-0.1875,-0.15625,0.09375,0.0,0.0,0.0
1664548101402,-0.9814453,0.2578125,0.0087890625,0.40625,-0.5,0.25,0.0,0.0,0.0
1664548101455,-0.9873047,0.24707031,0.01953125,0.53125,0.46875,0.8125,-72.875,-32.0625,-103.6875
1664548101498,-0.9892578,0.24707031,0.0234375,1.6875,1.125,1.0,0.0,0.0,0.0
1664548101524,-0.9873047,0.2529297,0.022460938,0.53125,1.09375,0.4375,0.0,0.0,0.0
1664548101587,-0.9921875,0.24121094,0.02734375,0.71875,0.59375,0.3125,0.0,0.0,0.0
1664548101610,-0.9892578,0.2607422,0.0048828125,0.71875,0.28125,0.21875,0.0,0.0,0.0
1664548101640,-0.9892578,0.25878906,0.028320312,0.90625,0.40625,0.375,0.0,0.0,0.0
1664548101798,-0.98046875,0.25683594,0.018554688,-0.3125,0.09375,0.09375,0.0,0.0,0.0
1664548101802,-0.9814453,0.2548828,0.0068359375,0.0,0.59375,0.09375,0.0,0.0,0.0
1664548101803,-0.9873047,0.265625,0.0068359375,-0.4375,0.21875,0.21875,0.0,0.0,0.0
1664548101832,-0.97753906,0.27148438,-9.765625E-4,-0.8125,0.78125,0.21875,0.0,0.0,0.0
1664548101858,-0.98046875,0.26757812,0.0068359375,-1.0625,0.71875,0.09375,0.0,0.0,0.0
1664548101876,-0.9824219,0.2578125,0.009765625,-1.0625,0.40625,0.15625,0.0,0.0,0.0
1664548102028,-0.98046875,0.2607422,0.013671875,-1.0,0.53125,0.09375,-72.75,-32.8125,-102.1875
1664548102031,-0.9863281,0.26464844,0.013671875,-0.5625,-0.15625,0.21875,0.0,0.0,0.0
1664548102036,-0.98339844,0.25585938,0.028320312,-0.6875,-0.15625,0.3125,0.0,0.0,0.0
1664548102080,-0.9785156,0.24902344,0.00390625,-0.375,-0.15625,0.25,0.0,0.0,0.0
1664548102128,-0.9814453,0.24804688,0.016601562,-0.125,-0.03125,0.3125,0.0,0.0,0.0
1664548102129,-0.9892578,0.25097656,0.020507812,-0.4375,-0.1875,0.375,0.0,0.0,0.0
1664548102281,-0.9863281,0.2548828,0.017578125,-0.375,-0.3125,0.21875,0.0,0.0,0.0
1664548102292,-0.9794922,0.25878906,0.022460938,-0.4375,0.21875,0.4375,0.0,0.0,0.0
1664548102297,-0.9863281,0.2607422,0.0078125,0.0625,-0.3125,0.375,0.0,0.0,0.0
1664548102317,-0.9716797,0.25878906,0.001953125,0.125,-0.46875,-0.09375,0.0,0.0,0.0
1664548102347,-0.9824219,0.2626953,0.0107421875,0.125,-0.25,0.09375,0.0,0.0,0.0
1664548102374,-0.9902344,0.25878906,0.0048828125,0.125,-0.0625,0.28125,0.0,0.0,0.0
1664548102420,-0.98535156,0.26171875,0.0146484375,-0.53125,0.0625,0.15625,0.0,0.0,0.0
1664548102446,-0.99121094,0.25195312,0.0107421875,0.125,-0.1875,0.03125,-71.875,-32.0625,-103.125
1664548102491,-0.9765625,0.25585938,0.017578125,0.125,-0.25,0.15625,0.0,0.0,0.0
1664548102546,-0.98339844,0.26367188,0.018554688,0.375,-0.28125,0.03125,0.0,0.0,0.0
1664548102639,-0.9794922,0.26464844,0.03125,0.3125,0.0,0.09375,0.0,0.0,0.0
1664548102641,-0.9824219,0.2548828,0.017578125,-0.0625,0.0,0.15625,0.0,0.0,0.0
1664548102723,-0.98046875,0.2578125,0.02734375,0.4375,0.0,-0.03125,0.0,0.0,0.0
1664548102741,-0.98339844,0.2529297,0.015625,1.03125,-0.28125,-0.03125,0.0,0.0,0.0
1664548102744,-0.984375,0.2626953,0.005859375,1.46875,-0.125,0.03125,0.0,0.0,0.0
1664548102796,-0.98339844,0.27148438,0.0107421875,0.6875,0.0,-0.09375,0.0,0.0,0.0
1664548102833,-0.9824219,0.26660156,0.0146484375,0.5,-0.125,-0.09375,0.0,0.0,0.0
1664548102874,-0.9902344,0.26660156,0.0048828125,-0.25,0.0,-0.15625,0.0,0.0,0.0
1664548102896,-0.98535156,0.25683594,0.0146484375,0.1875,0.0,-0.21875,0.0,0.0,0.0
1664548102936,-0.9716797,0.25878906,0.0029296875,0.3125,-0.125,-0.21875,-72.75,-32.5,-103.5625
1664548102966,-0.98535156,0.265625,0.0078125,0.0625,0.3125,-0.09375,0.0,0.0,0.0
1664548103034,-0.98535156,0.2607422,-0.001953125,0.125,0.0625,-0.21875,0.0,0.0,0.0
1664548103060,-0.98339844,0.25585938,0.017578125,-0.1875,-0.34375,-0.28125,0.0,0.0,0.0
1664548103076,-0.9873047,0.2626953,0.00390625,0.375,-0.1875,-0.15625,0.0,0.0,0.0
1664548103143,-0.98535156,0.26171875,0.0146484375,0.3125,-0.125,-0.21875,0.0,0.0,0.0
1664548103177,-0.9863281,0.26464844,0.0029296875,0.25,-0.125,-0.03125,0.0,0.0,0.0
1664548103198,-0.9794922,0.2685547,0.015625,-0.0625,-0.40625,-0.03125,0.0,0.0,0.0
1664548103282,-0.97753906,0.26171875,0.0107421875,0.3125,0.0,-0.09375,0.0,0.0,0.0
1664548103321,-0.9873047,0.2529297,0.0126953125,0.3125,-0.25,-0.03125,0.0,0.0,0.0
1664548103346,-0.9863281,0.26464844,0.0048828125,0.375,0.0,0.09375,0.0,0.0,0.0
1664548103404,-0.9902344,0.25878906,0.0107421875,0.375,0.125,0.34375,0.0,0.0,0.0
1664548103428,-0.9824219,0.26367188,0.0029296875,-0.53125,-0.0625,-0.28125,0.0,0.0,0.0
1664548103473,-0.9765625,0.26464844,0.01171875,0.125,-0.40625,-0.21875,-71.375,-31.0,-103.6875
1664548103510,-0.9746094,0.26660156,0.0068359375,-0.96875,0.125,-0.03125,0.0,0.0,0.0
1664548103536,-0.9814453,0.25390625,0.022460938,-0.1875,-0.0625,0.15625,0.0,0.0,0.0
1664548103564,-0.97753906,0.25878906,0.005859375,0.96875,-0.28125,0.03125,0.0,0.0,0.0
1664548103636,-0.984375,0.25683594,0.0068359375,1.34375,-0.53125,-0.03125,0.0,0.0,0.0
1664548103664,-0.98339844,0.26171875,-0.00390625,0.5,-0.28125,0.03125,0.0,0.0,0.0
1664548103691,-0.97558594,0.26464844,0.009765625,0.125,-0.40625,-0.03125,0.0,0.0,0.0
1664548103737,-0.9794922,0.2705078,0.016601562,0.0,-0.65625,-0.03125,0.0,0.0,0.0
1664548103766,-0.97753906,0.265625,0.0146484375,-0.4375,-0.25,0.21875,0.0,0.0,0.0
1664548103806,-0.9785156,0.26367188,0.0107421875,0.5625,-0.125,0.21875,0.0,0.0,0.0
1664548103869,-0.9863281,0.2607422,0.015625,0.125,-0.46875,0.09375,0.0,0.0,0.0
1664548103887,-0.9765625,0.2685547,0.0078125,0.375,-0.1875,-0.03125,0.0,0.0,0.0
1664548103920,-0.9863281,0.26367188,0.020507812,0.5,-0.46875,0.21875,-71.5625,-31.75,-104.3125
1664548103987,-0.9765625,0.25976562,0.0078125,0.0,-0.28125,0.03125,0.0,0.0,0.0
1664548104028,-0.9863281,0.26464844,0.001953125,0.0,-0.40625,0.15625,0.0,0.0,0.0
1664548104046,-0.984375,0.2607422,0.0068359375,-0.3125,-0.0625,0.15625,0.0,0.0,0.0
1664548104107,-0.98828125,0.2607422,0.0146484375,0.0,-0.0625,0.03125,0.0,0.0,0.0
1664548104130,-0.9814453,0.2607422,0.0087890625,0.3125,-0.1875,-0.03125,0.0,0.0,0.0
1664548104176,-0.98535156,0.26367188,0.021484375,0.84375,0.25,0.15625,0.0,0.0,0.0
1664548104237,-0.984375,0.2607422,0.00390625,0.5,0.4375,0.21875,0.0,0.0,0.0
1664548104258,-0.98535156,0.25585938,-0.001953125,0.375,-0.125,0.15625,0.0,0.0,0.0
1664548104277,-0.9794922,0.25683594,0.0146484375,0.1875,-0.125,-0.03125,0.0,0.0,0.0
1664548104352,-0.9785156,0.26953125,9.765625E-4,0.90625,-0.46875,0.03125,0.0,0.0,0.0
1664548104411,-0.9921875,0.2626953,0.0,0.5,-0.125,0.28125,0.0,0.0,0.0
1664548104413,-0.97753906,0.27148438,0.00390625,-0.125,0.125,0.03125,0.0,0.0,0.0
1664548104475,-0.9814453,0.26171875,-9.765625E-4,0.75,-0.34375,0.09375,-72.875,-33.125,-102.8125
1664548104510,-0.9814453,0.25976562,0.0068359375,0.375,-0.46875,-0.03125,0.0,0.0,0.0
1664548104530,-0.9824219,0.2626953,0.00390625,0.75,-0.25,0.03125,0.0,0.0,0.0
1664548104582,-0.9863281,0.26367188,0.0029296875,-0.125,-0.25,-0.09375,0.0,0.0,0.0
1664548104615,-0.98535156,0.26953125,0.001953125,0.0625,-0.40625,0.09375,0.0,0.0,0.0
1664548104643,-0.9794922,0.25390625,-0.0048828125,0.1875,0.125,0.03125,0.0,0.0,0.0
1664548104709,-0.9716797,0.26660156,0.00390625,0.625,0.125,0.09375,0.0,0.0,0.0
1664548104728,-0.9921875,0.26953125,9.765625E-4,0.25,-0.125,0.09375,0.0,0.0,0.0
1664548104772,-0.9746094,0.26367188,0.013671875,0.5,0.125,0.03125,0.0,0.0,0.0
1664548104817,-0.9824219,0.265625,0.01953125,-0.25,0.1875,0.09375,0.0,0.0,0.0
1664548104864,-0.9814453,0.2578125,0.0068359375,-0.0625,-0.1875,0.03125,0.0,0.0,0.0
1664548104876,-0.9824219,0.25878906,0.0029296875,0.3125,-0.25,-0.21875,0.0,0.0,0.0
1664548104938,-0.98046875,0.26367188,-0.001953125,0.75,-0.1875,0.15625,-72.125,-32.0625,-104.4375
1664548104986,-0.9921875,0.2626953,-0.005859375,0.5,-0.25,0.09375,0.0,0.0,0.0
1664548105018,-0.97265625,0.27148438,0.0078125,-0.0625,-0.25,-0.15625,0.0,0.0,0.0
1664548105077,-0.98535156,0.26171875,0.00390625,0.125,-0.40625,-0.03125,0.0,0.0,0.0
1664548105089,-0.9824219,0.26464844,0.0146484375,0.625,-0.46875,0.03125,0.0,0.0,0.0
1664548105147,-0.9824219,0.27734375,9.765625E-4,0.1875,-0.125,0.09375,0.0,0.0,0.0
1664548105192,-0.9892578,0.2626953,0.0078125,-0.25,-0.25,0.03125,0.0,0.0,0.0
1664548105232,-0.9873047,0.26953125,0.0234375,0.0,-0.34375,-0.09375,0.0,0.0,0.0
1664548105261,-0.9873047,0.26464844,0.0,-0.3125,-0.25,-0.03125,0.0,0.0,0.0
1664548105326,-0.9892578,0.25878906,0.017578125,-0.1875,-0.28125,-0.09375,0.0,0.0,0.0
1664548105362,-0.97753906,0.26367188,0.017578125,-0.1875,-0.25,-0.15625,0.0,0.0,0.0
1664548105390,-0.9765625,0.26660156,9.765625E-4,-0.1875,0.0625,0.15625,0.0,0.0,0.0
1664548105438,-0.97558594,0.25585938,0.0068359375,0.375,0.0,-0.15625,0.0,0.0,0.0
1664548105478,-0.984375,0.2529297,-0.0126953125,0.0,-0.53125,-0.09375,-72.3125,-30.4375,-102.9375
1664548105488,-0.9785156,0.26953125,0.01171875,0.4375,-0.1875,-0.15625,0.0,0.0,0.0
1664548105538,-0.96972656,0.26660156,0.0087890625,0.3125,-0.125,-0.15625,0.0,0.0,0.0
1664548105566,-0.98046875,0.26757812,0.001953125,0.375,-0.25,-0.15625,0.0,0.0,0.0
1664548105607,-0.97753906,0.26953125,-9.765625E-4,0.25,-0.0625,-0.09375,0.0,0.0,0.0
1664548105663,-0.9785156,0.26464844,0.0126953125,0.3125,-0.25,-0.21875,0.0,0.0,0.0
1664548105690,-0.9765625,0.25585938,0.0146484375,0.125,-0.25,-0.28125,0.0,0.0,0.0
1664548105718,-0.98046875,0.26953125,-0.00390625,0.75,-0.40625,-0.09375,0.0,0.0,0.0
1664548105781,-0.9892578,0.26757812,0.015625,-0.3125,-0.46875,-0.15625,0.0,0.0,0.0
1664548105806,-0.97753906,0.26464844,0.0048828125,-0.3125,-0.25,-0.09375,0.0,0.0,0.0
1664548105847,-0.9785156,0.2578125,0.015625,-0.0625,-0.40625,-0.15625,0.0,0.0,0.0
1664548105918,-0.9892578,0.2685547,0.01171875,-0.0625,-0.53125,-0.28125,0.0,0.0,0.0
1664548105933,-0.9746094,0.26660156,-0.001953125,0.84375,-0.1875,0.15625,-73.0625,-31.75,-103.875
1664548105968,-0.96972656,0.25683594,0.0029296875,0.25,-0.125,-0.21875,0.0,0.0,0.0
1664548106024,-0.9873047,0.2626953,0.015625,-0.1875,-0.34375,-0.21875,0.0,0.0,0.0
1664548106050,-0.98339844,0.27441406,0.009765625,0.125,-0.28125,-0.21875,0.0,0.0,0.0
1664548106090,-0.9892578,0.26757812,0.0107421875,0.3125,-0.40625,-0.03125,0.0,0.0,0.0
1664548106149,-0.9794922,0.27441406,0.0029296875,0.375,-0.34375,0.09375,0.0,0.0,0.0
1664548106175,-0.9824219,0.265625,0.0146484375,-0.0625,-0.0625,-0.03125,0.0,0.0,0.0
1664548106204,-0.9902344,0.25878906,0.0048828125,0.125,-0.25,0.03125,0.0,0.0,0.0
1664548106260,-0.98535156,0.26660156,0.0048828125,-0.5,-0.125,-0.03125,0.0,0.0,0.0
1664548106291,-0.9814453,0.25878906,0.0029296875,0.125,-0.125,0.09375,0.0,0.0,0.0
1664548106327,-0.9863281,0.25390625,0.0048828125,0.125,-0.25,-0.21875,0.0,0.0,0.0
1664548106414,-0.9746094,0.26171875,0.0068359375,0.5,-0.28125,-0.03125,0.0,0.0,0.0
1664548106477,-0.97558594,0.26757812,-0.0068359375,0.1875,-0.34375,0.03125,0.0,0.0,0.0
1664548106478,-0.98046875,0.26757812,0.0078125,-0.1875,-0.0625,-0.21875,-72.75,-30.6875,-102.5
1664548106547,-0.9785156,0.27539062,0.013671875,0.1875,-0.1875,0.15625,0.0,0.0,0.0
1664548106594,-0.97753906,0.2607422,0.0107421875,0.125,-0.0625,-0.09375,0.0,0.0,0.0
1664548106600,-0.99121094,0.26464844,0.018554688,-0.125,-0.1875,-0.09375,0.0,0.0,0.0
1664548106662,-0.98828125,0.26660156,0.009765625,0.25,-0.46875,-0.15625,0.0,0.0,0.0
1664548106720,-0.97265625,0.27246094,-0.009765625,-0.125,-0.1875,-0.28125,0.0,0.0,0.0
1664548106723,-0.9863281,0.2734375,0.013671875,0.8125,-0.59375,-0.03125,0.0,0.0,0.0
1664548106770,-0.98535156,0.27246094,-0.001953125,-0.0625,-0.1875,-0.03125,0.0,0.0,0.0
1664548106784,-0.984375,0.27148438,0.0087890625,0.0,-0.40625,-0.21875,0.0,0.0,0.0
1664548106820,-0.98339844,0.26464844,0.01171875,0.5,-0.90625,-0.21875,0.0,0.0,0.0
1664548106872,-0.98046875,0.25878906,0.0048828125,-0.1875,-0.53125,0.03125,0.0,0.0,0.0
1664548106897,-0.9873047,0.25878906,0.0087890625,0.625,-0.25,-0.09375,0.0,0.0,0.0
1664548106922,-0.9785156,0.26953125,0.025390625,0.4375,-0.125,0.09375,-72.75,-32.5,-102.9375
1664548106979,-0.97265625,0.2685547,0.015625,0.4375,-0.53125,0.09375,0.0,0.0,0.0
1664548107019,-0.984375,0.27441406,0.00390625,-1.09375,-0.1875,-0.09375,0.0,0.0,0.0
1664548107047,-0.9824219,0.2578125,0.0078125,-0.84375,0.125,-0.03125,0.0,0.0,0.0
1664548107099,-0.98535156,0.25878906,0.015625,-1.03125,-0.28125,-0.15625,0.0,0.0,0.0
1664548107131,-0.9824219,0.2626953,0.0126953125,1.40625,-0.34375,0.09375,0.0,0.0,0.0
1664548107157,-0.98535156,0.2626953,0.0146484375,2.6875,-0.84375,0.03125,0.0,0.0,0.0
1664548107239,-0.97265625,0.26660156,0.0029296875,2.09375,-0.90625,-0.34375,0.0,0.0,0.0
1664548107259,-0.97265625,0.27246094,0.0029296875,0.84375,-0.71875,0.09375,0.0,0.0,0.0
1664548107291,-0.9873047,0.26367188,9.765625E-4,0.4375,-0.125,0.03125,0.0,0.0,0.0
1664548107337,-0.9824219,0.26171875,0.017578125,0.125,-0.34375,-0.15625,0.0,0.0,0.0
1664548107374,-0.9814453,0.2626953,0.0107421875,0.8125,-0.46875,-0.03125,0.0,0.0,0.0
1664548107436,-0.9873047,0.26757812,0.01171875,0.125,-0.34375,-0.15625,0.0,0.0,0.0
1664548107461,-0.9765625,0.27246094,0.0029296875,-0.96875,-0.1875,-0.34375,-72.125,-32.6875,-104.125
1664548107486,-0.99121094,0.25683594,0.009765625,-1.28125,-0.34375,-0.40625,0.0,0.0,0.0
1664548107525,-0.97753906,0.25878906,0.00390625,-0.90625,-0.25,-0.09375,0.0,0.0,0.0
1664548107592,-0.9814453,0.26367188,0.015625,-0.0625,-0.25,0.03125,0.0,0.0,0.0
1664548107630,-0.9824219,0.25878906,0.005859375,-0.3125,-0.125,-0.28125,0.0,0.0,0.0
1664548107666,-0.9785156,0.26757812,9.765625E-4,0.0,-0.40625,-0.15625,0.0,0.0,0.0
1664548107719,-0.98339844,0.2626953,0.013671875,-0.0625,-0.40625,0.03125,0.0,0.0,0.0
1664548107740,-0.9746094,0.25,0.016601562,0.125,-0.34375,-0.15625,0.0,0.0,0.0
1664548107765,-0.98339844,0.26660156,0.021484375,0.90625,-0.1875,-0.03125,0.0,0.0,0.0
1664548107821,-0.99121094,0.26367188,0.0029296875,1.09375,-0.1875,-0.03125,0.0,0.0,0.0
1664548107872,-0.9824219,0.2626953,0.005859375,0.75,0.0,-0.09375,0.0,0.0,0.0
1664548107897,-0.98535156,0.26367188,9.765625E-4,0.5625,0.1875,-0.09375,0.0,0.0,0.0
1664548107963,-0.9794922,0.2607422,0.0029296875,0.4375,-0.28125,-0.09375,-72.75,-30.6875,-102.9375
1664548108011,-0.9814453,0.27148438,-0.0068359375,0.375,0.0,-0.21875,0.0,0.0,0.0
1664548108036,-0.9824219,0.27246094,9.765625E-4,0.1875,-0.46875,0.09375,0.0,0.0,0.0
1664548108075,-0.9941406,0.26171875,0.0048828125,0.0625,-0.25,0.09375,0.0,0.0,0.0
1664548108095,-0.9794922,0.26367188,-0.001953125,-0.4375,-0.40625,0.03125,0.0,0.0,0.0
1664548108126,-0.98046875,0.26171875,0.018554688,0.5,-0.40625,-0.09375,0.0,0.0,0.0
1664548108189,-0.9824219,0.26660156,0.013671875,0.125,-0.59375,-0.28125,0.0,0.0,0.0
1664548108221,-0.9794922,0.2705078,0.0029296875,-0.4375,0.0,0.09375,0.0,0.0,0.0
1664548108237,-0.9814453,0.26367188,0.01953125,-0.4375,0.0,-0.21875,0.0,0.0,0.0
1664548108314,-0.9765625,0.2626953,0.0126953125,-0.4375,-0.59375,-0.21875,0.0,0.0,0.0
1664548108339,-0.9902344,0.2626953,0.0107421875,0.25,-0.46875,0.09375,0.0,0.0,0.0
1664548108360,-0.9667969,0.26757812,0.01171875,-0.25,-0.53125,-0.03125,0.0,0.0,0.0
1664548108432,-0.9785156,0.25976562,9.765625E-4,-0.25,-0.125,0.09375,0.0,0.0,0.0
1664548108463,-0.98828125,0.25683594,0.0126953125,-0.0625,-0.25,0.21875,-72.3125,-32.1875,-103.25
1664548108504,-0.98046875,0.26464844,0.020507812,0.375,-0.0625,0.40625,0.0,0.0,0.0
1664548108554,-0.98339844,0.2607422,0.0068359375,0.5625,-0.125,0.09375,0.0,0.0,0.0
1664548108568,-0.9814453,0.25390625,0.00390625,0.5625,-0.1875,0.40625,0.0,0.0,0.0
1664548108602,-0.9824219,0.26757812,0.0068359375,0.25,-0.1875,0.34375,0.0,0.0,0.0
1664548108657,-0.9794922,0.26171875,-9.765625E-4,0.3125,-0.25,0.28125,0.0,0.0,0.0
1664548108689,-0.97558594,0.25683594,0.0107421875,0.375,-0.1875,0.53125,0.0,0.0,0.0
1664548108722,-0.9785156,0.27539062,-0.005859375,-0.25,-0.78125,0.09375,0.0,0.0,0.0
1664548108785,-0.9736328,0.26757812,-0.0029296875,-0.375,-0.34375,0.46875,0.0,0.0,0.0
1664548108828,-0.9794922,0.27148438,0.01171875,0.5625,0.4375,0.625,0.0,0.0,0.0
1664548108841,-0.9892578,0.26171875,0.024414062,0.5625,0.0625,0.5625,0.0,0.0,0.0
1664548108934,-0.9746094,0.2685547,0.013671875,0.25,0.0625,0.34375,0.0,0.0,0.0
1664548109000,-0.9785156,0.27929688,-0.001953125,0.0,-0.28125,0.21875,-72.875,-32.375,-104.4375
1664548109001,-0.98046875,0.27929688,9.765625E-4,-0.53125,0.25,0.46875,0.0,0.0,0.0
1664548109043,-0.9892578,0.27441406,0.0048828125,-0.0625,0.5,0.6875,0.0,0.0,0.0
1664548109065,-0.99121094,0.26171875,0.0126953125,0.0,-0.0625,0.40625,0.0,0.0,0.0
1664548109097,-0.9746094,0.2626953,0.00390625,0.8125,-0.40625,0.03125,0.0,0.0,0.0
1664548109142,-0.9794922,0.2607422,0.0029296875,1.84375,-0.46875,0.34375,0.0,0.0,0.0
1664548109166,-0.97265625,0.28515625,-0.00390625,0.90625,-0.0625,0.09375,0.0,0.0,0.0
1664548109198,-0.98046875,0.26660156,9.765625E-4,0.375,0.1875,0.46875,0.0,0.0,0.0
1664548109275,-0.9765625,0.26953125,0.0029296875,0.5625,-0.0625,0.28125,0.0,0.0,0.0
1664548109294,-0.9794922,0.2734375,0.0048828125,0.25,-0.53125,0.09375,0.0,0.0,0.0
1664548109326,-0.97753906,0.27441406,0.0078125,0.6875,-0.34375,-0.03125,0.0,0.0,0.0
1664548109384,-0.9785156,0.26953125,-0.0087890625,0.5625,0.875,0.53125,0.0,0.0,0.0
1664548109406,-0.9785156,0.27734375,-9.765625E-4,0.375,0.6875,0.40625,0.0,0.0,0.0
1664548109480,-0.9824219,0.2783203,-0.001953125,0.5,0.3125,0.28125,-71.25,-29.375,-103.5625
1664548109537,-0.9814453,0.2763672,0.001953125,0.8125,-0.28125,-0.15625,0.0,0.0,0.0
1664548109573,-0.9794922,0.28515625,0.0029296875,0.25,-0.25,0.03125,0.0,0.0,0.0
1664548109601,-0.9902344,0.26367188,0.015625,0.25,-0.0625,-0.03125,0.0,0.0,0.0
1664548109646,-0.9794922,0.27148438,-0.0068359375,-0.375,-0.34375,-0.21875,0.0,0.0,0.0
1664548109681,-0.9746094,0.2734375,0.0068359375,-0.4375,-0.28125,-0.34375,0.0,0.0,0.0
1664548109737,-0.9794922,0.2705078,0.01171875,0.0,-0.28125,-0.40625,0.0,0.0,0.0
1664548109753,-0.98046875,0.26757812,0.005859375,0.25,-0.0625,-0.53125,0.0,0.0,0.0
1664548109784,-0.9794922,0.26367188,0.016601562,0.4375,-0.53125,-0.34375,0.0,0.0,0.0
1664548109816,-0.9794922,0.26757812,0.0029296875,0.0625,-0.65625,-0.59375,0.0,0.0,0.0
1664548109870,-0.9814453,0.27246094,9.765625E-4,0.25,-0.65625,-0.46875,0.0,0.0,0.0
1664548109905,-0.97753906,0.27246094,0.0,0.375,-0.65625,-0.28125,0.0,0.0,0.0
1664548109927,-0.9736328,0.2705078,0.0029296875,0.0,-0.65625,-0.40625,-71.5625,-30.6875,-104.3125
1664548109978,-0.9794922,0.27246094,0.005859375,0.0,-0.90625,-0.53125,0.0,0.0,0.0
1664548110021,-0.98535156,0.27539062,0.005859375,0.0,-1.09375,-0.59375,0.0,0.0,0.0
1664548110060,-0.9794922,0.2734375,-0.0029296875,0.6875,-0.90625,-0.34375,0.0,0.0,0.0
1664548110107,-0.9785156,0.26953125,0.0068359375,0.625,-0.90625,-0.34375,0.0,0.0,0.0
1664548110130,-0.9746094,0.265625,0.005859375,0.0,-0.96875,-0.65625,0.0,0.0,0.0
1664548110189,-0.97753906,0.26953125,0.015625,0.625,-0.90625,-0.46875,0.0,0.0,0.0
1664548110255,-0.9814453,0.27246094,0.0087890625,0.125,-1.09375,-0.65625,0.0,0.0,0.0
1664548110271,-0.98339844,0.2685547,0.017578125,0.25,-0.96875,-0.46875,0.0,0.0,0.0
1664548110298,-0.97753906,0.27148438,-0.0087890625,0.0,-0.53125,-0.46875,0.0,0.0,0.0
1664548110347,-0.9814453,0.2705078,0.018554688,0.0625,-1.03125,-0.46875,0.0,0.0,0.0
1664548110367,-0.984375,0.26757812,0.015625,-0.0625,-0.78125,-0.65625,0.0,0.0,0.0
1664548110433,-0.98046875,0.2734375,0.0126953125,0.0625,-0.65625,-0.59375,0.0,0.0,0.0
1664548110503,-0.9824219,0.26367188,0.0126953125,0.25,-0.53125,-0.40625,-71.875,-31.3125,-103.125
1664548110527,-0.98535156,0.265625,0.0107421875,0.375,-0.46875,-0.34375,0.0,0.0,0.0
1664548110546,-0.9785156,0.27929688,-0.0126953125,-0.125,-0.90625,-0.75,0.0,0.0,0.0
1664548110595,-0.984375,0.28027344,0.009765625,0.5625,-0.84375,-0.40625,0.0,0.0,0.0
1664548110620,-0.9814453,0.27929688,0.0146484375,-0.53125,-0.90625,-0.75,0.0,0.0,0.0
1664548110661,-0.97753906,0.26660156,0.0126953125,-0.1875,-1.21875,-0.65625,0.0,0.0,0.0
1664548110735,-0.9824219,0.26953125,0.020507812,-0.375,-0.78125,-0.71875,0.0,0.0,0.0
1664548110772,-0.98046875,0.27929688,0.0048828125,-0.4375,-0.84375,-0.65625,0.0,0.0,0.0
1664548110799,-0.98535156,0.265625,0.016601562,-0.1875,-0.84375,-0.53125,0.0,0.0,0.0
1664548110853,-0.9902344,0.2685547,0.028320312,-0.375,-0.96875,-0.75,0.0,0.0,0.0
1664548110903,-0.9765625,0.27246094,0.017578125,-0.53125,-1.09375,-0.8125,0.0,0.0,0.0
1664548110946,-0.9814453,0.26464844,0.0048828125,0.5,-0.96875,-0.65625,0.0,0.0,0.0
1664548111034,-0.984375,0.26660156,0.0029296875,-0.0625,-1.15625,-0.75,-72.0,-32.5,-102.5
1664548111077,-0.9785156,0.26660156,0.0068359375,0.3125,-0.96875,-0.71875,0.0,0.0,0.0
1664548111099,-0.9873047,0.26953125,0.016601562,0.75,-0.71875,-0.59375,0.0,0.0,0.0
1664548111135,-0.9892578,0.25878906,0.0048828125,-0.125,-0.71875,-0.53125,0.0,0.0,0.0
1664548111166,-0.9765625,0.26367188,0.015625,0.0625,-0.90625,-0.59375,0.0,0.0,0.0
1664548111190,-0.98339844,0.265625,0.022460938,0.25,-0.78125,-0.71875,0.0,0.0,0.0
1664548111241,-0.9824219,0.265625,0.0068359375,0.75,-1.03125,-0.59375,0.0,0.0,0.0
1664548111323,-0.9873047,0.26757812,0.016601562,0.625,-0.90625,-0.46875,0.0,0.0,0.0
1664548111325,-0.9824219,0.26953125,0.015625,0.1875,-0.90625,-0.59375,0.0,0.0,0.0
1664548111390,-0.97558594,0.2626953,0.02734375,0.5625,-0.84375,-0.59375,0.0,0.0,0.0
1664548111410,-0.9863281,0.26660156,0.026367188,0.5,-0.96875,-0.59375,0.0,0.0,0.0
1664548111447,-0.96972656,0.27148438,0.0068359375,0.3125,-0.71875,-0.71875,0.0,0.0,0.0
1664548111470,-0.9824219,0.27148438,0.016601562,0.1875,-1.21875,-0.8125,0.0,0.0,0.0
1664548111471,-0.97558594,0.2529297,0.015625,-0.125,-1.03125,-0.71875,-72.75,-31.4375,-103.25
1664548111476,-0.9765625,0.26367188,0.01953125,0.375,-0.46875,-0.65625,0.0,0.0,0.0
1664548111536,-0.97753906,0.26660156,0.0107421875,0.125,-0.71875,-0.28125,0.0,0.0,0.0
1664548111566,-0.98339844,0.26464844,0.0234375,0.0,-0.46875,-0.53125,0.0,0.0,0.0
1664548111598,-0.9785156,0.26464844,0.013671875,-0.4375,-0.90625,-0.59375,0.0,0.0,0.0
1664548111656,-0.9814453,0.2548828,0.015625,0.125,-0.84375,-0.59375,0.0,0.0,0.0
1664548111688,-0.98828125,0.25878906,0.016601562,0.0,-1.15625,-0.46875,0.0,0.0,0.0
1664548111719,-0.97558594,0.25683594,0.0146484375,0.125,-1.09375,-0.53125,0.0,0.0,0.0
1664548111781,-0.98535156,0.26757812,0.0068359375,0.125,-0.59375,-0.46875,0.0,0.0,0.0
1664548111813,-0.98535156,0.26660156,0.0234375,0.5625,-0.84375,-0.46875,0.0,0.0,0.0
1664548111837,-0.9814453,0.2607422,0.017578125,0.0,-0.40625,-0.53125,0.0,0.0,0.0
1664548111904,-0.9892578,0.2705078,0.022460938,0.1875,-0.90625,-0.46875,0.0,0.0,0.0
1664548111927,-0.97753906,0.2548828,0.0126953125,-0.4375,-0.46875,-0.53125,-70.8125,-31.625,-103.125
1664548111989,-0.984375,0.26953125,0.01171875,-0.125,-0.65625,-0.34375,0.0,0.0,0.0
1664548112020,-0.9814453,0.2548828,0.01953125,0.375,-0.59375,-0.53125,0.0,0.0,0.0
1664548112049,-0.9794922,0.26953125,0.016601562,-0.125,-0.71875,-0.34375,0.0,0.0,0.0
1664548112082,-0.98046875,0.2548828,0.01953125,0.125,-0.25,-0.34375,0.0,0.0,0.0
1664548112143,-0.98339844,0.25585938,0.013671875,0.5,-0.40625,-0.40625,0.0,0.0,0.0
1664548112168,-0.98046875,0.2626953,0.01953125,0.25,-0.59375,-0.46875,0.0,0.0,0.0
1664548112203,-0.9814453,0.25683594,0.026367188,0.1875,-0.65625,-0.40625,0.0,0.0,0.0
1664548112261,-0.97753906,0.265625,0.025390625,0.4375,-0.78125,-0.53125,0.0,0.0,0.0
1664548112289,-0.9921875,0.2626953,0.01953125,0.125,-0.78125,-0.53125,0.0,0.0,0.0
1664548112323,-0.97558594,0.25878906,0.0107421875,0.5,-0.84375,-0.46875,0.0,0.0,0.0
1664548112380,-0.9716797,0.26953125,0.0234375,0.125,-0.59375,-0.53125,0.0,0.0,0.0
1664548112408,-0.9785156,0.2578125,0.021484375,0.3125,-0.84375,-0.46875,0.0,0.0,0.0
1664548112440,-0.9794922,0.2607422,0.021484375,-0.25,-0.71875,-0.65625,-71.875,-33.125,-103.125
1664548112499,-0.9746094,0.26367188,0.020507812,0.1875,-0.84375,-0.46875,0.0,0.0,0.0
1664548112529,-0.984375,0.26464844,0.021484375,0.125,-0.65625,-0.53125,0.0,0.0,0.0
1664548112561,-0.98046875,0.25976562,0.020507812,0.0625,-0.84375,-0.40625,0.0,0.0,0.0
1664548112618,-0.9765625,0.2626953,0.03515625,0.4375,-0.40625,0.09375,0.0,0.0,0.0
1664548112651,-0.9902344,0.265625,0.021484375,0.0625,0.375,-0.46875,0.0,0.0,0.0
1664548112678,-0.98339844,0.2578125,0.029296875,0.3125,-0.59375,-0.46875,0.0,0.0,0.0
1664548112739,-0.9814453,0.26367188,0.017578125,-0.375,-0.53125,-0.65625,0.0,0.0,0.0
1664548112773,-0.9765625,0.25585938,0.0126953125,0.375,-0.125,-0.46875,0.0,0.0,0.0
1664548112797,-0.98535156,0.2685547,0.015625,0.75,-0.1875,-0.21875,0.0,0.0,0.0
1664548112859,-0.9824219,0.26757812,0.017578125,0.0,-0.28125,-0.15625,0.0,0.0,0.0
1664548112888,-0.9824219,0.2734375,0.015625,0.3125,-0.40625,-0.28125,0.0,0.0,0.0
1664548112920,-0.9824219,0.2578125,0.024414062,0.0625,-0.59375,-0.40625,-74.125,-32.1875,-104.625
1664548112979,-0.9794922,0.25585938,0.01171875,-0.125,-0.53125,-0.40625,0.0,0.0,0.0
1664548113010,-0.9863281,0.25683594,0.034179688,0.625,-0.53125,-0.40625,0.0,0.0,0.0
1664548113039,-0.9873047,0.2578125,0.025390625,-0.3125,-0.53125,-0.59375,0.0,0.0,0.0
1664548113098,-0.97558594,0.2626953,0.01953125,-0.125,-0.90625,-0.40625,0.0,0.0,0.0
1664548113129,-0.9794922,0.2705078,0.017578125,-0.125,-0.65625,-0.75,0.0,0.0,0.0
1664548113158,-0.9814453,0.25878906,0.02734375,0.90625,-0.1875,-0.46875,0.0,0.0,0.0
1664548113219,-0.98046875,0.25976562,0.026367188,1.90625,-0.78125,-0.21875,0.0,0.0,0.0
1664548113251,-0.9814453,0.2685547,0.0078125,0.125,-1.15625,-0.59375,0.0,0.0,0.0
1664548113280,-0.984375,0.26953125,0.0146484375,-2.125,-0.84375,-0.71875,0.0,0.0,0.0
1664548113340,-0.9814453,0.25585938,0.016601562,-2.75,-0.46875,-0.65625,0.0,0.0,0.0
1664548113369,-0.9746094,0.25585938,0.020507812,-1.78125,-0.59375,-0.53125,0.0,0.0,0.0
1664548113403,-0.98535156,0.24511719,0.020507812,-0.25,0.25,-0.65625,0.0,0.0,0.0
1664548113462,-0.9746094,0.25390625,0.005859375,1.84375,0.5,0.15625,-72.0,-31.1875,-103.875
1664548113520,-0.9873047,0.26464844,0.013671875,1.96875,0.6875,0.5625,0.0,0.0,0.0
1664548113523,-0.98535156,0.2578125,0.021484375,-0.1875,-0.84375,-0.46875,0.0,0.0,0.0
1664548113581,-0.9814453,0.25,0.038085938,-0.96875,-1.15625,-0.59375,0.0,0.0,0.0
1664548113609,-0.9814453,0.25683594,0.018554688,-0.4375,-0.59375,-0.46875,0.0,0.0,0.0
1664548113638,-0.97753906,0.26171875,0.033203125,0.625,-0.78125,-0.59375,0.0,0.0,0.0
1664548113699,-0.9873047,0.25390625,0.026367188,0.6875,-1.21875,-0.71875,0.0,0.0,0.0
1664548113729,-0.98828125,0.2607422,0.022460938,1.34375,-0.71875,-0.46875,0.0,0.0,0.0
1664548113763,-0.98828125,0.2626953,0.0234375,0.1875,-0.65625,-0.34375,0.0,0.0,0.0
1664548113821,-0.9873047,0.26660156,0.017578125,-0.5,-0.25,-0.53125,0.0,0.0,0.0
1664548113849,-0.9873047,0.25097656,0.038085938,-0.0625,-0.40625,-0.46875,0.0,0.0,0.0
1664548113878,-0.9814453,0.27148438,0.0234375,0.125,-0.46875,-0.21875,0.0,0.0,0.0
1664548113939,-0.9873047,0.26367188,0.03125,0.125,-0.65625,-0.34375,-74.375,-32.1875,-101.125
1664548113970,-0.99609375,0.2548828,0.025390625,-0.125,-0.46875,-0.53125,0.0,0.0,0.0
1664548113999,-0.9814453,0.2578125,0.0048828125,0.3125,-0.46875,-0.21875,0.0,0.0,0.0
1664548114059,-0.9716797,0.265625,0.03125,-0.0625,-0.28125,-0.28125,0.0,0.0,0.0
1664548114091,-0.9941406,0.26464844,0.021484375,0.1875,-0.1875,-0.15625,0.0,0.0,0.0
1664548114119,-0.98828125,0.25878906,0.029296875,-0.65625,-0.65625,-0.40625,0.0,0.0,0.0
1664548114177,-0.9814453,0.25585938,0.03125,-0.3125,-0.65625,-0.59375,0.0,0.0,0.0
1664548114207,-0.9873047,0.25390625,0.02734375,-0.375,-0.59375,-0.65625,0.0,0.0,0.0
1664548114270,-0.9824219,0.2626953,0.04296875,0.0,-0.59375,-0.21875,0.0,0.0,0.0
1664548114300,-0.9824219,0.25585938,0.03515625,-0.3125,-0.46875,-0.53125,0.0,0.0,0.0
1664548114329,-0.9814453,0.25097656,0.03515625,-0.4375,-0.84375,-0.59375,0.0,0.0,0.0
1664548114358,-0.9794922,0.25878906,0.0146484375,0.4375,-0.65625,-0.46875,0.0,0.0,0.0
1664548114418,-0.9814453,0.24902344,0.026367188,0.25,-0.90625,-0.46875,0.0,0.0,0.0
1664548114449,-0.99902344,0.24316406,0.026367188,0.5625,-0.59375,-0.40625,-72.125,-31.0,-101.75
1664548114478,-0.9794922,0.27441406,0.030273438,0.1875,-0.53125,-0.46875,0.0,0.0,0.0
1664548114539,-0.9746094,0.2626953,0.017578125,0.625,-0.71875,-0.34375,0.0,0.0,0.0
1664548114568,-0.9873047,0.2578125,0.021484375,0.375,-0.53125,-0.28125,0.0,0.0,0.0
1664548114599,-0.9785156,0.2626953,0.02734375,0.125,-0.46875,-0.59375,0.0,0.0,0.0
1664548114663,-0.9814453,0.25683594,0.021484375,0.125,-0.28125,-0.53125,0.0,0.0,0.0
1664548114690,-0.98535156,0.265625,0.037109375,-0.375,-0.84375,-0.40625,0.0,0.0,0.0
1664548114719,-0.9863281,0.26953125,0.02734375,0.0,-0.28125,-0.53125,0.0,0.0,0.0
1664548114784,-0.9814453,0.2626953,0.038085938,0.1875,-0.46875,-0.46875,0.0,0.0,0.0
1664548114808,-0.98828125,0.25585938,0.040039062,-0.53125,-0.46875,-0.46875,0.0,0.0,0.0
1664548114838,-0.98339844,0.25390625,0.026367188,0.1875,-0.1875,-0.40625,0.0,0.0,0.0
1664548114896,-0.98828125,0.25390625,0.033203125,0.3125,-0.78125,-0.53125,0.0,0.0,0.0
1664548114926,-0.97558594,0.25878906,0.030273438,-0.5,-0.96875,-0.59375,-72.875,-29.8125,-102.8125
1664548114958,-0.9892578,0.26464844,0.026367188,0.375,-0.65625,-0.71875,0.0,0.0,0.0
1664548115019,-0.9863281,0.26464844,0.01953125,0.25,-0.71875,-0.34375,0.0,0.0,0.0
1664548115049,-0.9892578,0.2607422,0.029296875,0.3125,-0.46875,-0.34375,0.0,0.0,0.0
1664548115079,-0.98828125,0.26171875,0.03515625,0.375,-0.71875,-0.28125,0.0,0.0,0.0
1664548115139,-0.98339844,0.2529297,0.021484375,-0.3125,-0.59375,-0.59375,0.0,0.0,0.0
1664548115199,-0.9902344,0.25390625,0.037109375,0.125,-0.59375,-0.40625,0.0,0.0,0.0
1664548115202,-0.98046875,0.25878906,0.021484375,0.0625,-0.84375,-0.21875,0.0,0.0,0.0
1664548115260,-0.98046875,0.24804688,0.026367188,-0.1875,-0.40625,-0.53125,0.0,0.0,0.0
1664548115318,-0.98339844,0.25683594,0.026367188,0.5,-0.78125,-0.21875,0.0,0.0,0.0
1664548115320,-0.9824219,0.26464844,0.022460938,-0.125,-0.25,-0.40625,0.0,0.0,0.0
1664548115380,-0.99609375,0.25878906,0.033203125,-0.1875,-0.65625,-0.40625,0.0,0.0,0.0
1664548115409,-0.98339844,0.25390625,0.037109375,0.0,-1.03125,-0.40625,0.0,0.0,0.0
1664548115438,-0.97753906,0.2578125,0.038085938,0.25,-0.59375,-0.34375,-71.5625,-32.5,-102.9375
1664548115500,-0.9873047,0.26367188,0.029296875,0.5,-1.03125,-0.34375,0.0,0.0,0.0
1664548115529,-0.9824219,0.25683594,0.033203125,0.4375,-0.53125,-0.15625,0.0,0.0,0.0
1664548115560,-0.98535156,0.26171875,0.03125,0.0,-0.65625,-0.34375,0.0,0.0,0.0
1664548115619,-0.9873047,0.2529297,0.03125,-0.125,-0.28125,-0.34375,0.0,0.0,0.0
1664548115651,-0.98046875,0.25878906,0.025390625,0.0625,-0.65625,-0.21875,0.0,0.0,0.0
1664548115679,-0.98535156,0.25878906,0.040039062,0.125,-0.25,-0.15625,0.0,0.0,0.0
1664548115740,-0.9814453,0.26171875,0.032226562,-0.25,-0.53125,-0.09375,0.0,0.0,0.0
1664548115801,-0.98535156,0.25683594,0.036132812,-0.375,-0.28125,-0.34375,0.0,0.0,0.0
1664548115805,-0.98828125,0.25878906,0.033203125,-0.4375,-0.40625,-0.28125,0.0,0.0,0.0
1664548115860,-0.9814453,0.25585938,0.034179688,-0.25,-0.28125,-0.28125,0.0,0.0,0.0
1664548115919,-0.9824219,0.25585938,0.037109375,0.0625,-0.25,-0.21875,0.0,0.0,0.0
1664548115921,-0.984375,0.2626953,0.040039062,0.125,-0.59375,-0.46875,-73.9375,-33.125,-101.75
1664548115981,-0.98339844,0.25878906,0.03515625,0.125,-0.96875,-0.46875,0.0,0.0,0.0
1664548116011,-0.98339844,0.25683594,0.020507812,-0.5,-0.46875,-0.21875,0.0,0.0,0.0
1664548116041,-0.9941406,0.23925781,0.049804688,-0.4375,-0.0625,0.09375,0.0,0.0,0.0
1664548116099,-0.98339844,0.25878906,0.0390625,0.1875,-0.1875,-0.09375,0.0,0.0,0.0
1664548116127,-0.9902344,0.26464844,0.03515625,0.5625,-0.40625,-0.34375,0.0,0.0,0.0
1664548116165,-0.99121094,0.26367188,0.017578125,-0.25,-0.40625,-0.28125,0.0,0.0,0.0
1664548116222,-0.9765625,0.26660156,0.020507812,0.3125,-0.0625,0.15625,0.0,0.0,0.0
1664548116252,-0.9970703,0.25390625,0.038085938,-0.375,0.375,0.21875,0.0,0.0,0.0
1664548116280,-0.98535156,0.25097656,0.0390625,-0.4375,-0.1875,-0.15625,0.0,0.0,0.0
1664548116341,-0.9941406,0.24414062,0.026367188,0.25,-0.78125,-0.21875,0.0,0.0,0.0
1664548116373,-0.9736328,0.265625,0.040039062,0.8125,-0.28125,0.09375,0.0,0.0,0.0
1664548116398,-0.9902344,0.26660156,0.03515625,0.125,0.3125,0.15625,0.0,0.0,0.0
1664548116458,-0.9785156,0.26953125,0.01953125,-0.0625,-0.40625,-0.21875,-72.125,-31.625,-103.125
1664548116489,-0.98535156,0.25878906,0.03125,0.25,-0.78125,-0.15625,0.0,0.0,0.0
1664548116550,-0.9863281,0.27539062,0.01953125,-0.375,-0.84375,-0.03125,0.0,0.0,0.0
1664548116579,-0.9902344,0.2548828,0.029296875,-0.125,0.1875,0.21875,0.0,0.0,0.0
1664548116607,-0.9873047,0.26757812,0.029296875,0.375,0.125,0.21875,0.0,0.0,0.0
1664548116636,-0.9746094,0.26660156,0.053710938,0.1875,-0.0625,0.09375,0.0,0.0,0.0
1664548116696,-0.98046875,0.27148438,0.030273438,-0.375,0.1875,-0.46875,0.0,0.0,0.0
1664548116725,-0.98046875,0.26757812,0.028320312,-0.125,-0.25,-0.15625,0.0,0.0,0.0
1664548116756,-0.98339844,0.26171875,0.020507812,-0.59375,0.5,0.21875,0.0,0.0,0.0
1664548116818,-0.9814453,0.25683594,0.049804688,0.25,0.5625,0.34375,0.0,0.0,0.0
1664548116849,-0.9863281,0.25585938,0.034179688,0.8125,0.375,0.09375,0.0,0.0,0.0
1664548116878,-0.9814453,0.2626953,0.022460938,0.8125,0.25,-0.40625,0.0,0.0,0.0
1664548116940,-0.9824219,0.26367188,0.013671875,-0.4375,-0.40625,-0.71875,-73.0625,-31.75,-104.3125
1664548116969,-0.9892578,0.2705078,0.025390625,-0.59375,0.3125,-0.09375,0.0,0.0,0.0
1664548117001,-0.9814453,0.25097656,0.049804688,0.3125,1.03125,0.75,0.0,0.0,0.0
1664548117057,-0.98046875,0.25976562,0.04296875,0.5,0.9375,0.03125,0.0,0.0,0.0
1664548117105,-0.9814453,0.26367188,0.038085938,0.375,0.375,-0.46875,0.0,0.0,0.0
1664548117161,-0.98339844,0.2763672,0.009765625,0.1875,0.0,-0.65625,0.0,0.0,0.0
1664548117223,-0.9785156,0.2578125,0.013671875,0.25,0.125,-0.15625,0.0,0.0,0.0
1664548117248,-0.9824219,0.2578125,0.025390625,-0.125,0.25,-0.03125,0.0,0.0,0.0
1664548117282,-0.98535156,0.26464844,0.020507812,0.0,0.0625,-0.09375,0.0,0.0,0.0
1664548117357,-0.9794922,0.26464844,0.020507812,-0.0625,-0.40625,-0.46875,0.0,0.0,0.0
1664548117381,-0.97753906,0.26660156,0.0234375,0.25,-0.78125,-0.65625,0.0,0.0,0.0
1664548117401,-0.9794922,0.2705078,0.037109375,0.1875,-0.40625,-0.53125,0.0,0.0,0.0
1664548117451,-0.9785156,0.26367188,0.015625,-0.375,-0.59375,-0.40625,0.0,0.0,0.0
1664548117475,-0.98339844,0.26367188,0.022460938,-0.78125,-0.53125,-0.65625,-72.4375,-32.375,-102.0625
1664548117505,-0.98535156,0.25390625,0.020507812,0.25,-0.46875,-0.65625,0.0,0.0,0.0
1664548117544,-0.97753906,0.2529297,0.033203125,1.03125,-0.65625,-0.46875,0.0,0.0,0.0
1664548117586,-0.9824219,0.265625,0.03125,1.84375,-0.59375,-0.40625,0.0,0.0,0.0
1664548117606,-0.96484375,0.27148438,0.02734375,2.75,-0.34375,0.40625,0.0,0.0,0.0
1664548117661,-0.9902344,0.2705078,0.046875,1.53125,0.75,0.09375,0.0,0.0,0.0
1664548117686,-0.9785156,0.25976562,0.034179688,1.09375,0.375,-0.46875,0.0,0.0,0.0
1664548117717,-0.99121094,0.2607422,0.018554688,0.90625,-0.28125,0.03125,0.0,0.0,0.0
1664548117787,-0.9746094,0.26660156,0.024414062,1.46875,-0.28125,-0.09375,0.0,0.0,0.0
1664548117812,-0.9794922,0.25878906,0.02734375,1.78125,0.25,0.28125,0.0,0.0,0.0
1664548117853,-0.98339844,0.26660156,0.032226562,0.8125,0.75,0.21875,0.0,0.0,0.0
1664548117916,-0.9609375,0.2607422,0.040039062,0.0,-0.1875,-0.34375,0.0,0.0,0.0
1664548117951,-0.98046875,0.26367188,0.022460938,0.8125,-0.25,-0.21875,-73.1875,-33.125,-101.75
1664548117971,-0.9873047,0.26953125,0.015625,-0.125,0.125,0.03125,0.0,0.0,0.0
1664548118040,-0.9873047,0.2685547,0.026367188,-0.0625,0.5625,0.03125,0.0,0.0,0.0
1664548118076,-0.984375,0.26171875,0.01953125,0.3125,0.1875,0.34375,0.0,0.0,0.0
1664548118079,-0.9941406,0.2607422,0.021484375,0.3125,0.25,0.21875,0.0,0.0,0.0
1664548118157,-0.9785156,0.26953125,0.029296875,0.4375,0.125,0.15625,0.0,0.0,0.0
1664548118166,-0.98046875,0.26171875,0.005859375,-0.25,0.375,-0.09375,0.0,0.0,0.0
1664548118207,-0.9814453,0.26953125,0.017578125,-0.0625,0.0625,-0.09375,0.0,0.0,0.0
1664548118270,-0.9716797,0.27734375,0.022460938,-0.3125,0.25,-0.21875,0.0,0.0,0.0
1664548118286,-0.98046875,0.27734375,0.025390625,-0.0625,0.0625,-0.03125,0.0,0.0,0.0
1664548118322,-0.9814453,0.27246094,0.030273438,-0.4375,0.1875,-0.28125,0.0,0.0,0.0
1664548118383,-0.9863281,0.27246094,0.022460938,-0.25,0.1875,-0.34375,0.0,0.0,0.0
1664548118413,-0.9707031,0.2734375,0.01953125,-0.59375,0.0,-0.40625,0.0,0.0,0.0
1664548118438,-0.984375,0.26464844,0.013671875,-0.0625,0.875,-0.15625,-70.1875,-32.1875,-104.3125
1664548118512,-0.9873047,0.27246094,0.03125,-0.0625,1.15625,0.15625,0.0,0.0,0.0
1664548118548,-0.97265625,0.25878906,0.0087890625,1.53125,1.40625,0.28125,0.0,0.0,0.0
1664548118568,-0.9892578,0.265625,0.0078125,2.03125,0.25,-0.21875,0.0,0.0,0.0
1664548118627,-0.98046875,0.265625,0.01171875,1.90625,-0.125,-0.34375,0.0,0.0,0.0
1664548118655,-0.9892578,0.26660156,0.00390625,1.03125,-0.1875,-0.71875,0.0,0.0,0.0
1664548118682,-0.97753906,0.26757812,-0.005859375,1.84375,-0.78125,-0.71875,0.0,0.0,0.0
1664548118744,-0.9716797,0.28027344,0.001953125,0.125,-0.34375,-0.53125,0.0,0.0,0.0
1664548118768,-0.99121094,0.2578125,0.0126953125,-0.53125,0.3125,-0.34375,0.0,0.0,0.0
1664548118852,-0.96972656,0.26953125,0.017578125,-1.15625,1.59375,0.21875,0.0,0.0,0.0
1664548118877,-0.98828125,0.25,0.03515625,1.78125,1.15625,0.09375,0.0,0.0,0.0
1664548118887,-0.98828125,0.26757812,0.01171875,1.96875,-0.34375,-0.46875,0.0,0.0,0.0
1664548118923,-0.98046875,0.2685547,0.009765625,1.96875,-0.78125,-0.875,-72.4375,-31.625,-103.375
1664548118976,-0.984375,0.27734375,9.765625E-4,1.09375,-0.71875,-0.59375,0.0,0.0,0.0
1664548119025,-0.9794922,0.26367188,-0.001953125,-0.0625,-0.25,-0.40625,0.0,0.0,0.0
1664548119036,-0.9873047,0.2607422,0.0107421875,-1.28125,0.0,-0.53125,0.0,0.0,0.0
1664548119118,-0.98046875,0.25585938,0.0087890625,-0.0625,-0.90625,-0.59375,0.0,0.0,0.0
1664548119189,-0.99121094,0.26757812,0.0029296875,-0.0625,-1.15625,-0.59375,0.0,0.0,0.0
1664548119199,-0.98535156,0.2763672,0.0048828125,0.125,-1.34375,-0.75,0.0,0.0,0.0
1664548119246,-0.98046875,0.2763672,0.016601562,0.125,-1.5625,-0.46875,0.0,0.0,0.0
1664548119257,-0.98046875,0.27441406,0.0107421875,-1.15625,-1.09375,-0.46875,0.0,0.0,0.0
1664548119297,-0.9785156,0.29492188,0.009765625,-1.53125,-1.03125,-1.125,0.0,0.0,0.0
1664548119337,-0.98535156,0.29101562,0.0048828125,-3.96875,-0.40625,-1.5625,0.0,0.0,0.0
1664548119366,-0.984375,0.28125,9.765625E-4,-5.0625,-0.125,-2.21875,0.0,0.0,0.0
1664548119399,-0.9873047,0.25683594,-0.00390625,-2.6875,-1.5625,-3.5625,0.0,0.0,0.0
1664548119501,-0.98046875,0.2763672,-0.017578125,0.84375,-5.25,-3.8125,-72.125,-32.375,-104.4375
1664548119536,-0.98339844,0.27929688,-0.026367188,3.375,-5.4375,-4.375,0.0,0.0,0.0
1664548119552,-0.96972656,0.31152344,-0.0078125,4.75,-8.71875,-3.75,0.0,0.0,0.0
1664548119593,-0.9785156,0.3017578,-0.013671875,6.0,-8.90625,-1.3125,0.0,0.0,0.0
1664548119611,-0.98339844,0.28222656,0.0029296875,8.3125,-10.5625,-0.03125,0.0,0.0,0.0
1664548119639,-0.9921875,0.2861328,0.051757812,6.59375,-10.125,-1.625,0.0,0.0,0.0
1664548119707,-0.9628906,0.296875,0.076171875,0.5625,-4.5625,-3.75,0.0,0.0,0.0
1664548119733,-0.98535156,0.2607422,0.0703125,-8.71875,1.46875,-5.09375,0.0,0.0,0.0
1664548119765,-0.9921875,0.21679688,0.07128906,-15.5,6.0,-6.6875,0.0,0.0,0.0
1664548119827,-0.71875,0.15722656,0.11328125,-19.03125,6.1875,-4.78125,0.0,0.0,0.0
1664548119880,-1.0029297,0.16601562,0.083984375,-17.4375,3.1875,-4.5,0.0,0.0,0.0
1664548119882,-0.9902344,0.15820312,0.09082031,-9.6875,2.75,-4.4375,0.0,0.0,0.0
1664548119946,-0.99902344,0.17871094,0.05078125,-3.46875,1.90625,-3.03125,-73.1875,-33.125,-102.8125
1664548119967,-0.9980469,0.19335938,0.047851562,0.25,0.4375,-2.15625,0.0,0.0,0.0
1664548120006,-0.98339844,0.22363281,0.040039062,3.375,0.3125,-0.75,0.0,0.0,0.0
