# Sensor type: Thingy
# Activity type: Falling on the right
# Activity code: 46
# Subject id: s1956488
# Notes: 1
timestamp,accel_x,accel_y,accel_z,gyro_x,gyro_y,gyro_z,mag_x,mag_y,mag_z
1664548966755,-0.8173828,0.40429688,0.43652344,-12.28125,27.46875,33.1875,0.0,0.0,0.0
1664548966830,-0.8125,0.43652344,0.46484375,-13.6875,22.09375,27.9375,0.0,0.0,0.0
1664548966879,-0.79296875,0.43945312,0.44628906,-6.0,5.875,24.28125,0.0,0.0,0.0
1664548966908,-0.73046875,0.4638672,0.421875,4.9375,-7.4375,18.0,0.0,0.0,0.0
1664548966929,-0.7519531,0.4501953,0.48242188,-11.40625,6.90625,9.4375,0.0,0.0,0.0
1664548966993,-0.7109375,0.4248047,0.44726562,-7.75,5.9375,-0.1875,0.0,0.0,0.0
1664548967019,-0.71191406,0.42578125,0.43164062,-6.78125,-0.0625,-9.34375,0.0,0.0,0.0
1664548967061,-0.6542969,0.4404297,0.4326172,-7.5625,2.5625,-19.375,-72.125,-30.5625,-87.375
1664548967109,-0.70703125,0.4375,0.49121094,-3.0,4.875,-26.0625,0.0,0.0,0.0
1664548967144,-0.71191406,0.4814453,0.4560547,-2.625,2.15625,-35.46875,0.0,0.0,0.0
1664548967162,-0.73046875,0.51953125,0.4267578,4.375,14.84375,-45.0625,0.0,0.0,0.0
1664548967206,-0.8203125,0.6933594,0.5449219,7.6875,24.78125,-46.40625,0.0,0.0,0.0
1664548967233,-1.4921875,0.83691406,0.7363281,26.0625,-24.28125,-22.53125,0.0,0.0,0.0
1664548967278,-0.29589844,0.16699219,-0.2626953,-0.375,51.40625,-27.59375,0.0,0.0,0.0
1664548967349,-1.1425781,0.11328125,0.08203125,47.0,31.75,20.75,0.0,0.0,0.0
1664548967398,-1.1992188,-0.064453125,0.20507812,36.75,27.0,-37.625,0.0,0.0,0.0
1664548967453,-0.8642578,0.35253906,0.3544922,50.65625,38.9375,-53.65625,0.0,0.0,0.0
1664548967508,-0.9355469,0.57421875,0.043945312,-8.5,38.65625,-27.78125,0.0,0.0,0.0
1664548967534,-1.0722656,0.22558594,0.15625,-13.3125,31.4375,-34.3125,0.0,0.0,0.0
1664548967554,-0.99121094,0.13085938,0.16210938,-31.3125,48.09375,-57.8125,0.0,0.0,0.0
1664548967632,-1.0771484,-0.083984375,0.19433594,-11.0,41.75,-49.15625,-78.875,-40.4375,-95.125
1664548967648,-1.1904297,0.2861328,0.16894531,-13.3125,28.625,-42.96875,0.0,0.0,0.0
1664548967659,-1.5986328,0.15332031,0.2109375,-30.40625,9.71875,-32.90625,0.0,0.0,0.0
1664548967717,-1.3398438,0.29101562,0.2861328,-17.53125,-38.125,-61.96875,0.0,0.0,0.0
1664548967757,-1.1123047,-0.040039062,0.09375,-41.625,-11.03125,-65.1875,0.0,0.0,0.0
1664548967776,-0.8935547,0.15527344,-0.06347656,-23.25,-17.5,-47.9375,0.0,0.0,0.0
1664548967823,-0.5185547,0.2861328,0.13964844,-6.15625,-44.3125,-14.84375,0.0,0.0,0.0
1664548967846,-0.11621094,0.099609375,0.053710938,-28.15625,-63.78125,11.8125,0.0,0.0,0.0
1664548967858,-0.22460938,0.055664062,-0.20996094,5.25,-19.09375,25.25,0.0,0.0,0.0
1664548967915,-0.43945312,-0.06347656,-0.055664062,28.3125,45.90625,35.1875,0.0,0.0,0.0
1664548967953,-1.6025391,0.2998047,0.001953125,56.28125,16.0625,45.875,0.0,0.0,0.0
1664548967976,-1.9863281,0.14746094,-0.11621094,3.71875,5.6875,-17.28125,0.0,0.0,0.0
1664548968039,-1.9863281,0.28027344,0.08105469,1.15625,94.84375,7.0,-79.5,-48.125,-92.3125
1664548968068,-1.9716797,0.28125,-0.11035156,-22.46875,136.40625,-11.90625,0.0,0.0,0.0
1664548968079,-1.3017578,0.63964844,0.28125,-31.75,133.5625,91.71875,0.0,0.0,0.0
1664548968120,-1.3486328,-0.3779297,0.49414062,-81.5,0.25,96.78125,0.0,0.0,0.0
1664548968150,-0.9609375,-0.42578125,0.82421875,123.46875,-158.5625,32.34375,0.0,0.0,0.0
1664548968176,-0.56152344,-0.32226562,0.23535156,-36.5,-95.4375,-3.125,0.0,0.0,0.0
1664548968251,-0.6796875,-0.265625,-0.05078125,-47.125,-185.59375,7.0,0.0,0.0,0.0
1664548968266,-1.0205078,0.26367188,0.12695312,105.28125,-129.21875,2.84375,0.0,0.0,0.0
1664548968303,-0.9121094,0.19726562,0.29492188,112.1875,-131.65625,-53.53125,0.0,0.0,0.0
1664548968367,-0.921875,0.083984375,-0.036132812,42.09375,-96.125,-88.9375,0.0,0.0,0.0
1664548968416,-0.9658203,0.5185547,0.20019531,116.09375,-92.15625,-84.375,0.0,0.0,0.0
1664548968431,-0.7548828,0.18359375,0.30566406,117.375,-85.875,-74.65625,0.0,0.0,0.0
1664548968489,-0.484375,0.20507812,0.22753906,106.6875,-26.375,-54.03125,0.0,0.0,0.0
1664548968522,-0.49023438,0.11621094,0.005859375,103.75,3.5,-38.46875,-68.125,-39.5625,-76.6875
1664548968580,-0.22949219,0.12890625,0.18066406,108.28125,45.46875,-45.125,0.0,0.0,0.0
1664548968637,0.009765625,-0.0107421875,0.068359375,145.375,133.96875,-30.65625,0.0,0.0,0.0
1664548968665,-0.703125,-0.37304688,-0.20703125,130.65625,216.8125,-5.4375,0.0,0.0,0.0
1664548968701,-1.8164062,1.0703125,0.49804688,157.03125,0.875,44.96875,0.0,0.0,0.0
1664548968760,-0.6513672,1.0166016,-0.32617188,33.6875,62.75,28.78125,0.0,0.0,0.0
1664548968794,-1.5058594,-0.4794922,-0.15722656,3.78125,68.5,-19.5,0.0,0.0,0.0
1664548968810,-1.0800781,0.8876953,-0.14160156,83.0625,-7.1875,20.125,0.0,0.0,0.0
1664548968873,-0.88964844,0.26757812,-0.140625,41.5,39.1875,31.71875,0.0,0.0,0.0
1664548968929,-1.0839844,0.33691406,-0.033203125,45.21875,-14.40625,31.90625,0.0,0.0,0.0
1664548968962,-0.88378906,0.38671875,0.296875,56.21875,-6.09375,-6.1875,0.0,0.0,0.0
1664548969026,-1.0205078,0.19726562,0.3486328,31.375,-0.84375,-2.9375,0.0,0.0,0.0
1664548969069,-1.1308594,-0.0078125,0.056640625,46.9375,-10.0625,-1.0625,-78.75,-23.375,-104.3125
1664548969121,-1.0146484,-0.024414062,0.0146484375,105.59375,-25.09375,-3.96875,0.0,0.0,0.0
1664548969161,-0.91308594,0.16210938,0.024414062,89.53125,-10.4375,21.40625,0.0,0.0,0.0
1664548969196,-1.140625,0.38671875,-0.20703125,76.03125,-29.28125,26.09375,0.0,0.0,0.0
1664548969220,-0.95703125,0.37597656,-0.359375,116.625,-36.96875,-10.5625,0.0,0.0,0.0
1664548969255,-0.9511719,0.5019531,-0.4169922,116.09375,-53.40625,-10.6875,0.0,0.0,0.0
1664548969301,-0.76464844,0.64941406,-0.21386719,74.40625,-77.3125,0.03125,0.0,0.0,0.0
1664548969332,-0.75390625,0.41210938,-0.3076172,17.09375,-87.46875,7.8125,0.0,0.0,0.0
1664548969416,-0.8173828,0.46972656,-0.0546875,17.03125,-98.0625,-0.875,0.0,0.0,0.0
1664548969448,-0.90527344,0.35058594,0.005859375,-11.0,-106.75,-15.21875,0.0,0.0,0.0
1664548969482,-0.6826172,0.07910156,0.044921875,-11.71875,-105.09375,-22.59375,0.0,0.0,0.0
1664548969537,-0.55371094,0.057617188,0.31152344,-8.5625,-82.5625,-16.6875,0.0,0.0,0.0
1664548969577,-0.8105469,0.3232422,0.60253906,8.46875,-78.0625,-27.59375,0.0,0.0,0.0
1664548969610,-1.1162109,0.56933594,0.74121094,-45.78125,-90.09375,-54.15625,-71.5625,-23.0625,-91.25
1664548969674,-0.47265625,0.038085938,0.5595703,-44.75,-86.59375,-37.75,0.0,0.0,0.0
1664548969687,-0.86816406,0.16601562,0.70410156,-15.25,-78.78125,-57.21875,0.0,0.0,0.0
1664548969709,-0.4951172,0.2265625,0.6660156,-7.5625,-42.90625,-66.25,0.0,0.0,0.0
1664548969762,-0.6660156,0.21777344,0.7529297,-10.0625,-61.21875,-49.5,0.0,0.0,0.0
1664548969804,-0.5048828,0.22753906,0.4609375,-10.125,-42.0,-61.21875,0.0,0.0,0.0
1664548969853,-0.5732422,0.22460938,0.6826172,6.21875,-35.9375,-33.28125,0.0,0.0,0.0
1664548969904,-0.62402344,0.16796875,0.6035156,8.84375,-41.875,-36.03125,0.0,0.0,0.0
1664548969934,-0.3828125,0.25683594,0.56347656,25.875,-42.96875,-32.59375,0.0,0.0,0.0
1664548969975,-0.2607422,0.16699219,0.24902344,5.5,-16.78125,-28.09375,0.0,0.0,0.0
1664548970035,-0.30664062,0.27246094,0.51171875,5.25,-15.6875,-40.0625,0.0,0.0,0.0
1664548970068,-0.65234375,-0.37890625,0.19824219,-15.25,27.78125,-59.59375,0.0,0.0,0.0
1664548970096,-0.74121094,-0.3251953,0.2841797,-1.03125,4.34375,-91.4375,-68.125,-34.625,-75.625
1664548970176,-0.48242188,-0.37597656,0.21191406,-11.96875,8.5625,-128.875,0.0,0.0,0.0
1664548970240,-1.6474609,-0.46679688,1.1572266,-103.34375,-32.78125,-191.59375,0.0,0.0,0.0
1664548970263,-0.8378906,-0.46972656,0.28125,-182.0,73.125,-320.5625,0.0,0.0,0.0
1664548970408,-0.49609375,-1.984375,1.8808594,-26.0625,-126.65625,-326.90625,0.0,0.0,0.0
1664548970448,-0.8222656,-1.984375,1.0644531,-80.625,38.09375,-124.78125,0.0,0.0,0.0
1664548970520,0.51171875,-0.03515625,1.3378906,-86.1875,-25.5,-18.3125,0.0,0.0,0.0
1664548970601,0.4560547,0.20703125,0.1328125,-219.90625,166.21875,53.6875,0.0,0.0,0.0
1664548970685,-1.6074219,-1.4560547,-0.31347656,-234.875,85.03125,53.8125,0.0,0.0,0.0
1664548970687,-0.27148438,-0.9042969,-0.34179688,-189.75,113.59375,-20.15625,0.0,0.0,0.0
1664548970736,-0.10253906,-0.74609375,-0.25,-107.5625,108.28125,-55.1875,0.0,0.0,0.0
1664548970779,-0.5576172,-1.0791016,-0.2265625,-96.625,106.34375,-28.46875,0.0,0.0,0.0
1664548970819,-0.5185547,-0.97753906,-0.29882812,-136.84375,103.8125,-35.96875,0.0,0.0,0.0
1664548970876,-0.4248047,-0.8544922,-0.2919922,-185.25,116.09375,-37.4375,-62.25,-89.8125,-120.5
1664548970900,-0.23632812,-0.81152344,-0.68359375,-188.1875,84.34375,-32.59375,0.0,0.0,0.0
1664548970948,-0.2841797,-0.77246094,-0.8105469,-162.40625,71.28125,-30.28125,0.0,0.0,0.0
1664548971030,-0.2705078,-0.74121094,-0.92089844,-120.90625,108.15625,-22.46875,0.0,0.0,0.0
1664548971072,-0.14746094,-0.5566406,-0.84375,-22.28125,34.8125,22.625,0.0,0.0,0.0
1664548971111,0.13671875,-0.671875,-0.7607422,-31.5625,24.78125,25.125,0.0,0.0,0.0
1664548971185,0.0068359375,-0.56347656,-0.8251953,-13.0,7.875,20.1875,0.0,0.0,0.0
1664548971221,-0.14746094,-0.5966797,-0.8378906,-19.21875,10.8125,12.8125,0.0,0.0,0.0
1664548971269,-0.083984375,-0.50683594,-0.80371094,-25.34375,10.6875,-2.21875,0.0,0.0,0.0
1664548971297,-0.125,-0.58984375,-0.9082031,-22.59375,2.03125,-3.6875,0.0,0.0,0.0
1664548971317,-0.099609375,-0.5566406,-0.93359375,3.53125,-0.59375,-3.90625,0.0,0.0,0.0
1664548971333,-0.11621094,-0.58496094,-0.8847656,33.875,0.0625,-4.53125,0.0,0.0,0.0
1664548971397,-0.1484375,-0.6142578,-0.81933594,62.4375,-6.28125,-8.3125,-53.375,-79.625,-151.5625
1664548971426,-0.15234375,-0.6484375,-0.8769531,110.59375,-24.65625,-10.9375,0.0,0.0,0.0
1664548971457,-0.1875,-0.74609375,-0.8408203,147.21875,-46.0625,-18.875,0.0,0.0,0.0
1664548971511,-0.123046875,-0.81640625,-0.6435547,174.875,-59.9375,-26.0625,0.0,0.0,0.0
1664548971537,-0.10449219,-0.859375,-0.51953125,172.46875,-79.65625,-12.71875,0.0,0.0,0.0
1664548971573,-0.036132812,-0.9169922,-0.36523438,152.9375,-72.4375,-4.90625,0.0,0.0,0.0
1664548971631,-0.09375,-0.86035156,-0.29492188,118.46875,-60.46875,19.34375,0.0,0.0,0.0
1664548971659,-0.10449219,-0.9140625,-0.19433594,93.5625,-52.96875,30.75,0.0,0.0,0.0
1664548971690,-0.16308594,-0.9433594,-0.11230469,85.1875,-54.0,47.46875,0.0,0.0,0.0
1664548971754,-0.2607422,-0.9794922,-0.09375,87.15625,-40.46875,50.78125,0.0,0.0,0.0
1664548971783,-0.3388672,-1.0029297,-0.0146484375,87.34375,-36.0625,35.3125,0.0,0.0,0.0
1664548971827,-0.3671875,-0.9355469,0.08496094,67.8125,-27.75,32.9375,0.0,0.0,0.0
1664548971899,-0.328125,-0.83496094,0.16894531,56.6875,-26.375,35.5625,0.0,0.0,0.0
1664548971918,-0.3544922,-1.015625,0.16113281,50.03125,-18.5,41.3125,-61.1875,-89.5,-97.5625
1664548971959,-0.33496094,-0.95703125,0.12695312,44.90625,-28.3125,55.59375,0.0,0.0,0.0
1664548972021,-0.47851562,-1.0546875,0.0068359375,55.0,-51.625,74.15625,0.0,0.0,0.0
1664548972043,-0.5800781,-1.1220703,0.15234375,89.84375,-84.40625,80.78125,0.0,0.0,0.0
1664548972048,-0.5292969,-0.89453125,0.3564453,83.0625,-69.28125,88.25,0.0,0.0,0.0
1664548972115,-0.5859375,-0.90527344,0.23144531,63.40625,-72.4375,75.53125,0.0,0.0,0.0
1664548972156,-0.23925781,-0.7626953,0.2685547,57.78125,-88.75,58.03125,0.0,0.0,0.0
1664548972191,-0.35253906,-0.5673828,0.5625,13.125,-73.78125,57.125,0.0,0.0,0.0
1664548972248,-0.5332031,-0.7529297,0.56933594,1.09375,-52.4375,54.25,0.0,0.0,0.0
1664548972269,-0.61816406,-0.57714844,0.6542969,15.5625,-50.96875,76.34375,0.0,0.0,0.0
1664548972279,-0.7519531,-0.6738281,0.7060547,18.78125,-39.53125,91.40625,0.0,0.0,0.0
1664548972334,-0.60253906,-0.86035156,0.53222656,33.3125,-40.75,102.46875,0.0,0.0,0.0
1664548972344,-0.73339844,-0.66796875,0.44921875,53.15625,-47.71875,96.46875,-64.8125,-57.875,-71.4375
1664548972371,-0.56347656,-0.45214844,0.47265625,32.40625,-55.34375,100.03125,0.0,0.0,0.0
1664548972420,-0.27734375,-0.47753906,0.5644531,8.53125,-45.40625,109.0,0.0,0.0,0.0
1664548972434,-0.2607422,0.0546875,0.6972656,-20.875,-41.375,104.59375,0.0,0.0,0.0
1664548972475,-0.13183594,-0.09765625,0.63964844,-14.34375,-1.65625,78.65625,0.0,0.0,0.0
1664548972509,-0.12695312,-0.16308594,0.92578125,-18.0625,-20.8125,69.375,0.0,0.0,0.0
1664548972548,-0.46191406,0.30859375,0.90625,-15.5,-41.1875,40.28125,0.0,0.0,0.0
1664548972569,-0.39648438,-0.24511719,0.9980469,-1.59375,-10.84375,9.09375,0.0,0.0,0.0
1664548972633,-0.9814453,0.037109375,1.0859375,11.03125,-14.75,4.6875,0.0,0.0,0.0
1664548972657,-0.9716797,-0.15234375,0.7861328,53.34375,7.28125,-0.875,0.0,0.0,0.0
1664548972692,-0.76953125,-0.10253906,0.703125,30.5625,-6.84375,3.28125,0.0,0.0,0.0
1664548972747,-0.62109375,-0.47265625,0.7607422,26.4375,-16.46875,0.46875,0.0,0.0,0.0
1664548972766,-0.57421875,-0.296875,0.6171875,45.84375,-31.90625,7.6875,0.0,0.0,0.0
1664548972797,-0.6640625,-0.28320312,0.57910156,41.6875,-38.25,-1.0625,-52.625,-40.75,-64.875
1664548972858,-0.57910156,-0.0859375,0.88378906,31.0,-44.0,-16.6875,0.0,0.0,0.0
1664548972888,-0.8486328,-0.14160156,0.91308594,16.78125,-22.5625,-44.28125,0.0,0.0,0.0
1664548972904,-0.7246094,-0.24316406,0.9550781,-24.40625,-28.4375,-63.8125,0.0,0.0,0.0
1664548972948,-0.69140625,-0.4033203,0.9267578,0.25,-29.84375,-75.46875,0.0,0.0,0.0
1664548972973,-0.6542969,-0.13671875,0.87109375,29.78125,-53.8125,-62.5625,0.0,0.0,0.0
1664548972994,-0.24511719,0.060546875,0.89160156,6.65625,-35.75,-74.28125,0.0,0.0,0.0
1664548973058,-0.107421875,-0.2607422,0.5859375,-3.0,-22.34375,-51.65625,0.0,0.0,0.0
1664548973101,-0.119140625,0.001953125,0.8046875,15.3125,-30.625,-32.96875,0.0,0.0,0.0
1664548973127,0.16992188,-0.2109375,0.9921875,21.65625,4.15625,-43.65625,0.0,0.0,0.0
1664548973172,-0.37304688,0.046875,0.8466797,32.9375,-2.3125,-25.46875,0.0,0.0,0.0
1664548973188,-0.10839844,-0.30664062,0.99902344,49.3125,28.75,-46.84375,0.0,0.0,0.0
1664548973214,-0.7392578,0.076171875,1.3613281,77.75,-28.6875,13.90625,-47.6875,-41.8125,-64.5625
1664548973273,-0.5917969,0.17578125,1.2412109,9.21875,13.0,1.375,0.0,0.0,0.0
1664548973292,-0.38183594,0.049804688,1.2099609,0.375,34.5625,-7.15625,0.0,0.0,0.0
1664548973369,-0.40527344,0.15136719,1.1503906,-3.65625,8.0,35.8125,0.0,0.0,0.0
1664548973381,-0.41210938,0.12988281,0.9667969,-31.8125,32.90625,38.0,0.0,0.0,0.0
1664548973413,-0.19335938,-0.08886719,1.0332031,-17.34375,55.1875,30.3125,0.0,0.0,0.0
1664548973444,-0.23925781,-0.07324219,1.0693359,-13.75,63.3125,18.34375,0.0,0.0,0.0
1664548973472,-0.3544922,-0.2783203,1.0039062,2.375,69.71875,11.59375,0.0,0.0,0.0
1664548973486,-0.39746094,-0.017578125,0.8935547,16.96875,69.15625,6.8125,0.0,0.0,0.0
1664548973514,-0.5283203,-0.09472656,0.8183594,-8.625,72.53125,11.28125,0.0,0.0,0.0
1664548973561,-0.5136719,-0.11816406,0.77734375,7.125,80.9375,-7.15625,0.0,0.0,0.0
1664548973579,-0.4873047,-0.09765625,0.6591797,20.75,92.15625,1.4375,0.0,0.0,0.0
1664548973609,-0.5810547,0.041015625,0.60058594,52.65625,72.21875,33.0625,0.0,0.0,0.0
1664548973696,-0.8076172,-0.15917969,0.8105469,50.90625,83.0625,38.0625,-66.4375,-34.4375,-76.125
1664548973713,-0.7109375,0.06738281,0.68652344,81.53125,69.90625,22.1875,0.0,0.0,0.0
1664548973747,-0.55078125,0.15917969,0.4169922,104.5,62.1875,54.5625,0.0,0.0,0.0
1664548973824,-0.95703125,0.11230469,0.58691406,148.84375,50.78125,72.625,0.0,0.0,0.0
1664548973849,-1.2802734,0.16699219,0.5449219,134.8125,74.15625,22.5,0.0,0.0,0.0
1664548973876,-0.93359375,0.4736328,0.39648438,76.28125,50.46875,5.46875,0.0,0.0,0.0
1664548973956,-0.85058594,0.5058594,0.32910156,-1.59375,39.0,-2.59375,0.0,0.0,0.0
1664548973979,-0.5332031,0.31835938,-0.0087890625,-37.84375,39.125,-16.4375,0.0,0.0,0.0
1664548974003,-0.63378906,0.24023438,0.23925781,18.0625,9.53125,-7.15625,0.0,0.0,0.0
1664548974047,-0.4794922,0.19824219,0.20214844,-14.90625,32.59375,-3.375,0.0,0.0,0.0
1664548974074,-0.20117188,0.21386719,0.21972656,-17.65625,41.6875,24.46875,0.0,0.0,0.0
1664548974085,-0.16992188,0.08300781,-0.10644531,-49.5625,136.71875,36.53125,0.0,0.0,0.0
1664548974136,-0.90625,0.41503906,-0.09765625,-73.5,165.09375,83.40625,-73.1875,-18.5625,-102.375
1664548974160,-1.9863281,0.5830078,-0.001953125,-6.84375,171.8125,45.875,0.0,0.0,0.0
1664548974198,-1.7275391,0.82128906,0.171875,-74.96875,161.8125,-40.0625,0.0,0.0,0.0
1664548974229,-1.0146484,0.5292969,0.20996094,-36.5625,63.0625,-20.09375,0.0,0.0,0.0
1664548974259,-0.8310547,0.515625,-0.087890625,-22.78125,-3.71875,21.65625,0.0,0.0,0.0
1664548974280,-0.88378906,0.1953125,-0.099609375,-29.1875,9.65625,11.15625,0.0,0.0,0.0
1664548974322,-0.8691406,0.1484375,-0.20019531,-20.5,27.28125,-15.40625,0.0,0.0,0.0
1664548974344,-0.8574219,0.4013672,-0.053710938,2.5,12.34375,-9.34375,0.0,0.0,0.0
1664548974354,-0.86035156,0.45507812,-0.060546875,-2.9375,1.90625,-1.46875,0.0,0.0,0.0
1664548974400,-0.92285156,0.31054688,-0.17773438,-15.21875,6.71875,-6.90625,0.0,0.0,0.0
1664548974411,-0.9482422,0.32421875,-0.16992188,3.0,6.96875,-11.90625,0.0,0.0,0.0
1664548974452,-0.93066406,0.42285156,-0.056640625,1.40625,9.90625,-6.78125,0.0,0.0,0.0
1664548974513,-0.94140625,0.32128906,-0.15527344,7.5625,7.6875,-2.03125,0.0,0.0,0.0
1664548974531,-0.94433594,0.34179688,-0.095703125,15.9375,7.03125,-6.96875,-74.375,-18.4375,-114.8125
1664548974567,-0.92089844,0.4501953,-0.06640625,3.28125,0.8125,-11.3125,0.0,0.0,0.0
1664548974637,-0.9160156,0.3486328,-0.12109375,-1.21875,2.5,-10.75,0.0,0.0,0.0
1664548974669,-0.9326172,0.27246094,-0.123046875,3.96875,-0.3125,-9.84375,0.0,0.0,0.0
1664548974695,-0.9042969,0.29882812,-0.09667969,13.90625,0.9375,-9.96875,0.0,0.0,0.0
1664548974744,-0.9453125,0.3388672,-0.10839844,15.875,-1.8125,-11.4375,0.0,0.0,0.0
1664548974770,-0.9082031,0.32128906,-0.109375,17.375,-7.1875,-10.5,0.0,0.0,0.0
1664548974806,-0.9765625,0.328125,-0.17675781,24.96875,-16.40625,-12.09375,0.0,0.0,0.0
1664548974972,-0.91503906,0.28125,-0.1015625,19.90625,-28.875,-19.53125,0.0,0.0,0.0
1664548974975,-1.1230469,0.3251953,-0.076171875,24.09375,-44.0,-25.09375,0.0,0.0,0.0
1664548974977,-0.87402344,0.29785156,-0.036132812,17.375,-50.28125,-26.3125,0.0,0.0,0.0
1664548975044,-1.0595703,0.1484375,-0.08203125,29.71875,-63.90625,-19.96875,-78.625,-23.1875,-109.5625
1664548975046,-0.9785156,0.171875,0.20507812,32.84375,-75.875,-33.53125,0.0,0.0,0.0
1664548975083,-0.94140625,0.08105469,0.072265625,25.3125,-82.4375,-26.125,0.0,0.0,0.0
1664548975215,-0.9091797,0.22949219,0.23828125,29.21875,-86.1875,-31.15625,0.0,0.0,0.0
1664548975216,-0.734375,0.19824219,0.15234375,26.46875,-89.84375,-27.0625,0.0,0.0,0.0
1664548975218,-1.0214844,0.20410156,0.3515625,16.84375,-76.65625,-39.375,0.0,0.0,0.0
1664548975244,-0.8388672,0.26367188,0.18359375,17.5625,-98.375,-53.375,0.0,0.0,0.0
1664548975278,-0.5214844,0.24804688,0.41015625,-3.25,-101.3125,-44.03125,0.0,0.0,0.0
1664548975310,-0.82421875,0.020507812,0.3251953,-38.40625,-69.5,-48.65625,0.0,0.0,0.0
1664548975377,-0.9355469,0.051757812,0.3564453,-35.65625,-105.875,-66.53125,0.0,0.0,0.0
1664548975410,-0.44433594,-0.05078125,0.28710938,-26.25,-105.09375,-61.28125,0.0,0.0,0.0
1664548975455,-0.60058594,0.19042969,0.58691406,-36.5,-132.0625,-66.59375,0.0,0.0,0.0
1664548975481,-0.4169922,0.13085938,0.43359375,-34.625,-123.28125,-38.28125,0.0,0.0,0.0
1664548975499,-0.36132812,0.21582031,0.4501953,-23.625,-147.875,-22.21875,0.0,0.0,0.0
1664548975514,-0.25585938,0.15136719,0.38085938,-47.90625,-116.09375,-6.3125,-65.25,-41.6875,-69.8125
1664548975613,-0.36523438,-0.14941406,0.2939453,-61.09375,-90.8125,-9.28125,0.0,0.0,0.0
1664548975639,-0.10839844,-0.30371094,0.17675781,-83.5,-90.625,-21.0,0.0,0.0,0.0
1664548975674,0.051757812,-0.64160156,0.032226562,-116.34375,-26.0,-8.875,0.0,0.0,0.0
1664548975723,0.03125,-0.45507812,-0.0107421875,-143.375,14.78125,-33.03125,0.0,0.0,0.0
1664548975759,-1.9863281,-1.984375,1.9931641,-50.84375,-245.0,-181.71875,0.0,0.0,0.0
1664548975787,-1.9863281,-1.4189453,0.16503906,-215.03125,-75.875,-202.59375,0.0,0.0,0.0
1664548975980,1.3525391,0.49414062,1.7705078,-132.875,116.28125,-174.8125,0.0,0.0,0.0
1664548975981,1.7724609,-0.4423828,0.05078125,-112.875,67.34375,-5.625,0.0,0.0,0.0
1664548975982,-0.19433594,-1.2949219,0.06738281,-36.5625,30.09375,128.40625,0.0,0.0,0.0
1664548976012,-0.68652344,-0.3046875,0.33789062,-56.65625,66.34375,127.65625,0.0,0.0,0.0
1664548976044,-0.5136719,-1.1699219,0.7080078,-116.09375,50.78125,37.21875,0.0,0.0,0.0
1664548976069,-0.6669922,-1.1318359,-0.30859375,-169.3125,106.15625,-74.28125,-55.5,-84.875,-80.125
1664548976142,0.09277344,-0.5449219,0.5341797,-58.46875,82.84375,-88.28125,0.0,0.0,0.0
1664548976166,-0.36523438,-1.0771484,0.12597656,-139.03125,105.84375,-26.75,0.0,0.0,0.0
1664548976191,-0.35839844,-1.0,-0.12109375,-191.40625,101.625,-18.03125,0.0,0.0,0.0
1664548976250,-0.3232422,-1.2109375,-0.45410156,-151.5,78.625,-25.34375,0.0,0.0,0.0
1664548976255,-0.20703125,-0.97265625,-0.32226562,-98.5625,56.9375,-22.65625,0.0,0.0,0.0
1664548976296,-0.29785156,-1.0263672,-0.21679688,-82.40625,22.34375,11.59375,0.0,0.0,0.0
1664548976383,-0.119140625,-0.8925781,-0.2998047,-55.90625,24.78125,33.96875,0.0,0.0,0.0
1664548976384,-0.009765625,-0.8066406,-0.5439453,-64.21875,39.5,23.0,0.0,0.0,0.0
1664548976415,-0.21191406,-0.8486328,-0.453125,-85.03125,52.5625,13.34375,0.0,0.0,0.0
1664548976551,-0.20019531,-0.78222656,-0.6035156,-86.625,39.4375,16.03125,0.0,0.0,0.0
1664548976553,-0.15625,-0.7910156,-0.6640625,-83.6875,29.96875,8.90625,0.0,0.0,0.0
1664548976555,-0.23730469,-0.7949219,-0.69921875,-64.53125,4.21875,7.1875,0.0,0.0,0.0
1664548976601,-0.22363281,-0.7529297,-0.6689453,-45.78125,4.53125,3.09375,-54.125,-91.4375,-134.3125
1664548976625,-0.25878906,-0.7626953,-0.72265625,-24.71875,-6.46875,5.0,0.0,0.0,0.0
1664548976655,-0.21386719,-0.7158203,-0.6611328,-11.34375,-7.4375,0.90625,0.0,0.0,0.0
1664548976744,-0.26171875,-0.7421875,-0.7236328,0.96875,-12.375,0.65625,0.0,0.0,0.0
1664548976745,-0.2109375,-0.7363281,-0.7597656,39.46875,-15.96875,-4.71875,0.0,0.0,0.0
1664548976774,-0.27441406,-0.8017578,-0.70410156,68.84375,-19.40625,-4.40625,0.0,0.0,0.0
1664548976819,-0.26953125,-0.8671875,-0.72265625,121.625,-28.6875,-4.90625,0.0,0.0,0.0
1664548976836,-0.28320312,-0.8769531,-0.50390625,144.09375,-49.75,4.0,0.0,0.0,0.0
1664548976852,-0.29589844,-0.9277344,-0.4296875,142.3125,-68.78125,16.9375,0.0,0.0,0.0
1664548976895,-0.31835938,-0.93066406,-0.29492188,137.75,-71.53125,14.875,0.0,0.0,0.0
1664548976915,-0.31445312,-0.9296875,-0.18457031,121.5625,-64.5,11.40625,0.0,0.0,0.0
1664548976941,-0.36328125,-0.9189453,-0.11425781,111.6875,-60.96875,9.5,0.0,0.0,0.0
1664548976996,-0.3046875,-0.9560547,-0.05078125,113.34375,-58.34375,3.9375,-57.875,-92.9375,-101.0
1664548977023,-0.3515625,-0.87890625,0.11230469,114.4375,-53.59375,1.28125,0.0,0.0,0.0
1664548977049,-0.3076172,-1.0712891,0.0625,116.03125,-47.46875,-2.75,0.0,0.0,0.0
1664548977097,-0.3359375,-0.92089844,0.27539062,115.40625,-51.8125,11.9375,0.0,0.0,0.0
1664548977127,-0.33007812,-0.8779297,0.32226562,100.59375,-37.65625,5.34375,0.0,0.0,0.0
1664548977153,-0.23632812,-0.7294922,0.4580078,100.09375,-29.78125,10.90625,0.0,0.0,0.0
1664548977224,-0.25390625,-0.76171875,0.54589844,79.8125,-25.25,10.0,0.0,0.0,0.0
1664548977241,-0.25878906,-0.6435547,0.5644531,65.25,-20.25,25.375,0.0,0.0,0.0
1664548977264,-0.2939453,-0.65625,0.58984375,57.84375,-11.21875,19.75,0.0,0.0,0.0
1664548977322,-0.28222656,-0.78808594,0.57421875,74.8125,16.90625,27.15625,0.0,0.0,0.0
1664548977365,-0.3515625,-0.66796875,0.6855469,46.5,22.21875,28.90625,0.0,0.0,0.0
1664548977400,-0.36328125,-0.72265625,0.75390625,29.09375,9.65625,41.625,0.0,0.0,0.0
1664548977442,-0.55371094,-0.7792969,0.69433594,13.0,-19.78125,45.15625,0.0,0.0,0.0
1664548977469,-0.34570312,-0.8486328,0.609375,24.53125,-53.9375,52.34375,-58.5,-69.5625,-70.875
1664548977501,-0.36816406,-0.70703125,0.7216797,27.875,-52.65625,73.53125,0.0,0.0,0.0
1664548977568,-0.51660156,-0.5830078,0.7451172,23.375,-55.15625,80.5625,0.0,0.0,0.0
1664548977602,-0.20410156,-0.6435547,0.5917969,-12.9375,-57.25,69.0625,0.0,0.0,0.0
1664548977666,-0.32714844,-0.72558594,0.78222656,-22.53125,-28.0,69.5625,0.0,0.0,0.0
1664548977727,-0.43554688,-0.8017578,0.7910156,-4.59375,-18.65625,59.8125,0.0,0.0,0.0
1664548977730,-0.6064453,-0.71484375,0.7402344,12.6875,-12.75,60.15625,0.0,0.0,0.0
1664548977733,-0.8330078,-0.53515625,1.0283203,53.78125,-24.46875,58.59375,0.0,0.0,0.0
1664548977762,-1.1259766,-0.36816406,0.7626953,33.875,-15.8125,56.3125,0.0,0.0,0.0
1664548977791,-0.5546875,-0.15917969,0.84277344,31.96875,-53.71875,71.9375,0.0,0.0,0.0
1664548977826,-0.5048828,-0.31054688,0.45703125,-23.625,-15.1875,83.90625,0.0,0.0,0.0
1664548977883,-0.68359375,-0.3486328,0.9736328,-18.8125,-28.3125,105.09375,0.0,0.0,0.0
1664548977951,-0.44726562,-0.45996094,0.74316406,-1.40625,-42.15625,100.9375,-52.1875,-51.4375,-61.875
1664548977952,-0.38867188,-0.2939453,0.77441406,15.4375,-85.9375,122.53125,0.0,0.0,0.0
1664548978008,-0.2578125,-0.4140625,0.7939453,18.125,-117.25,117.40625,0.0,0.0,0.0
1664548978047,-0.078125,-0.21386719,0.5654297,12.5625,-157.9375,112.40625,0.0,0.0,0.0
1664548978059,-0.09277344,-0.19238281,0.66015625,1.40625,-144.65625,78.78125,0.0,0.0,0.0
1664548978123,0.2783203,-0.14160156,0.8886719,1.34375,-102.03125,41.78125,0.0,0.0,0.0
1664548978176,0.3330078,-0.0703125,1.0488281,2.0625,-85.5625,32.46875,0.0,0.0,0.0
1664548978207,0.2548828,-0.0146484375,1.1132812,-9.15625,-84.96875,9.09375,0.0,0.0,0.0
1664548978259,0.5029297,-0.20996094,1.0742188,-8.96875,-19.15625,-2.40625,0.0,0.0,0.0
1664548978290,0.08691406,-0.14257812,1.3115234,-0.5625,36.8125,-33.03125,0.0,0.0,0.0
1664548978325,0.0126953125,-0.091796875,1.2148438,12.4375,2.375,-51.09375,0.0,0.0,0.0
1664548978403,-0.10058594,-0.13964844,1.1640625,12.4375,22.46875,-63.0,0.0,0.0,0.0
1664548978448,-0.28710938,-0.18457031,0.8144531,19.34375,-0.53125,-71.4375,0.0,0.0,0.0
1664548978481,-0.09375,0.043945312,0.84765625,15.625,-3.03125,-62.5,-21.3125,-45.4375,-54.6875
1664548978533,0.053710938,-0.18847656,0.78515625,-1.09375,17.875,-55.5,0.0,0.0,0.0
1664548978558,0.048828125,-0.12890625,0.8925781,7.375,-1.40625,-50.84375,0.0,0.0,0.0
1664548978594,0.038085938,-0.125,0.9238281,7.0625,-21.1875,-52.5625,0.0,0.0,0.0
1664548978644,0.068359375,-0.2265625,0.8457031,8.84375,-40.65625,-50.78125,0.0,0.0,0.0
1664548978677,-0.00390625,-0.23339844,0.8769531,8.21875,-15.375,-55.8125,0.0,0.0,0.0
1664548978721,-0.0703125,-0.087890625,1.1357422,3.65625,-0.53125,-53.78125,0.0,0.0,0.0
1664548978776,-0.030273438,-0.09277344,1.2626953,-1.84375,-3.65625,-45.25,0.0,0.0,0.0
1664548978820,0.23242188,-0.36621094,1.2265625,51.4375,39.1875,-38.96875,0.0,0.0,0.0
1664548978857,-0.1328125,0.115234375,1.6992188,76.90625,53.71875,-22.21875,0.0,0.0,0.0
1664548978907,-0.28515625,0.034179688,1.4824219,61.75,26.75,-24.84375,0.0,0.0,0.0
1664548978929,-0.23144531,0.23535156,1.0751953,35.40625,42.0,-28.875,0.0,0.0,0.0
1664548978989,-0.10546875,0.3154297,0.9033203,-24.1875,105.125,-40.25,-30.4375,-31.4375,-63.9375
1664548979009,-0.13964844,0.30371094,1.0849609,-54.28125,119.5625,-4.59375,0.0,0.0,0.0
1664548979034,-0.15625,0.029296875,0.91796875,-62.6875,130.3125,21.03125,0.0,0.0,0.0
1664548979050,-0.23730469,0.06738281,1.0253906,-52.0,124.09375,20.125,0.0,0.0,0.0
1664548979119,-0.18359375,-0.2529297,0.8808594,-5.75,96.5,17.4375,0.0,0.0,0.0
1664548979140,-0.2919922,-0.072265625,0.85546875,36.0,92.0,34.59375,0.0,0.0,0.0
1664548979153,-0.5107422,-0.0068359375,0.94921875,29.03125,91.1875,21.84375,0.0,0.0,0.0
1664548979210,-0.5048828,-0.08886719,0.89160156,38.5,87.78125,17.125,0.0,0.0,0.0
1664548979234,-0.61816406,-0.009765625,0.65625,61.03125,82.34375,24.09375,0.0,0.0,0.0
1664548979276,-0.7138672,0.15917969,0.70703125,72.875,86.96875,14.21875,0.0,0.0,0.0
1664548979346,-0.6699219,0.06542969,0.53515625,69.09375,104.0,17.8125,0.0,0.0,0.0
1664548979382,-0.8232422,0.1171875,0.59277344,88.4375,115.3125,20.5,0.0,0.0,0.0
1664548979420,-0.88378906,0.20703125,0.37597656,99.78125,117.6875,25.8125,0.0,0.0,0.0
1664548979472,-0.7919922,0.29296875,0.37890625,88.5625,143.25,20.75,-70.375,-20.375,-92.125
1664548979507,-0.7167969,0.33984375,0.17480469,55.34375,146.5625,33.96875,0.0,0.0,0.0
1664548979553,-0.3671875,0.34277344,0.061523438,9.5625,170.78125,30.375,0.0,0.0,0.0
1664548979605,-0.671875,0.16894531,0.055664062,-8.375,203.75,30.6875,0.0,0.0,0.0
1664548979644,-1.1269531,0.10546875,0.16601562,14.75,141.4375,10.84375,0.0,0.0,0.0
1664548979654,-0.8876953,0.043945312,0.057617188,1.75,97.46875,-15.9375,0.0,0.0,0.0
1664548979716,-0.72558594,0.1796875,-0.21972656,-13.4375,57.375,-21.125,0.0,0.0,0.0
1664548979747,-1.1523438,0.7363281,-0.20507812,14.03125,-1.28125,18.65625,0.0,0.0,0.0
1664548979774,-1.1835938,0.32617188,0.037109375,-11.71875,-29.34375,1.21875,0.0,0.0,0.0
1664548979832,-1.0126953,0.5839844,0.0,-27.40625,-79.03125,-11.1875,0.0,0.0,0.0
1664548979853,-0.93066406,0.44433594,0.0234375,-44.375,-149.21875,8.96875,0.0,0.0,0.0
1664548979912,-0.96191406,0.4375,-0.14746094,-15.5625,-184.1875,12.75,0.0,0.0,0.0
1664548979932,-1.359375,0.38085938,0.31054688,53.875,-185.1875,-9.28125,-72.0,-16.0,-104.625
1664548979946,-0.89746094,0.10546875,-0.15039062,31.625,-115.46875,-75.5625,0.0,0.0,0.0
1664548979995,-0.7060547,0.2705078,0.09667969,65.375,-48.15625,-71.78125,0.0,0.0,0.0
1664548980065,-0.42382812,0.28125,0.21582031,32.59375,47.6875,-70.8125,0.0,0.0,0.0
1664548980098,-0.22167969,0.53125,-0.18945312,-29.3125,188.46875,-40.0,0.0,0.0,0.0
1664548980129,-1.0097656,0.67578125,-0.3388672,-21.96875,190.0625,63.875,0.0,0.0,0.0
1664548980185,-1.5253906,0.76464844,0.4267578,9.46875,117.625,56.75,0.0,0.0,0.0
1664548980211,-1.5556641,0.24804688,-0.14355469,-84.96875,125.3125,8.90625,0.0,0.0,0.0
1664548980240,-1.0292969,0.040039062,0.22265625,-55.375,41.6875,-21.6875,0.0,0.0,0.0
1664548980303,-0.9316406,0.2109375,-0.049804688,-38.40625,4.78125,-11.5,0.0,0.0,0.0
1664548980341,-0.9550781,0.11328125,-0.16992188,6.65625,-7.875,-0.5,0.0,0.0,0.0
1664548980380,-0.9003906,0.19726562,-0.06347656,5.59375,9.15625,-5.375,0.0,0.0,0.0
1664548980456,-0.8828125,0.35253906,-0.18066406,20.3125,9.53125,-0.125,0.0,0.0,0.0
1664548980479,-0.9433594,0.3408203,-0.13867188,18.5,11.71875,0.71875,-75.75,-18.5625,-117.8125
1664548980501,-0.953125,0.46777344,-0.07714844,13.90625,4.40625,-4.46875,0.0,0.0,0.0
1664548980549,-1.0214844,0.359375,-0.11328125,-5.0625,5.3125,-12.84375,0.0,0.0,0.0
1664548980582,-0.97558594,0.2841797,-0.12109375,1.09375,-6.84375,-14.71875,0.0,0.0,0.0
1664548980617,-1.0439453,0.24804688,-0.10449219,6.34375,-18.4375,-20.9375,0.0,0.0,0.0
1664548980671,-0.8417969,0.32128906,-0.10058594,16.46875,-28.375,-27.1875,0.0,0.0,0.0
1664548980703,-1.046875,0.33398438,-0.11816406,6.84375,-41.75,-22.90625,0.0,0.0,0.0
1664548980723,-0.79785156,0.15917969,0.06542969,13.78125,-51.375,-27.0625,0.0,0.0,0.0
1664548980773,-1.0820312,0.087890625,-0.16015625,5.84375,-44.65625,-25.71875,0.0,0.0,0.0
1664548980802,-0.7636719,0.16503906,-0.01171875,4.21875,-54.875,-47.5625,0.0,0.0,0.0
1664548980832,-0.9501953,0.10253906,0.2421875,-3.3125,-90.625,-44.5,0.0,0.0,0.0
1664548980903,-0.7578125,0.053710938,0.13867188,-2.9375,-75.4375,-28.34375,0.0,0.0,0.0
1664548980959,-0.84765625,0.15332031,0.20214844,4.4375,-53.09375,-36.15625,-81.125,-28.3125,-105.625
1664548980994,-1.3603516,0.2109375,0.39257812,-8.375,-77.5,-31.5,0.0,0.0,0.0
1664548981033,-0.6738281,0.15234375,0.3251953,18.25,-73.59375,-30.78125,0.0,0.0,0.0
1664548981054,-0.74609375,0.068359375,0.30371094,4.625,-59.9375,-42.5625,0.0,0.0,0.0
1664548981067,-0.88378906,0.03125,0.34179688,-6.21875,-54.25,-55.0,0.0,0.0,0.0
1664548981128,-0.9628906,0.12597656,0.48828125,10.5,-90.25,-50.6875,0.0,0.0,0.0
1664548981188,-0.4482422,-0.037109375,0.3095703,6.90625,-83.90625,-48.65625,0.0,0.0,0.0
1664548981233,-0.7470703,0.09277344,0.47460938,-1.28125,-98.4375,-28.53125,0.0,0.0,0.0
1664548981295,-0.83496094,0.16503906,0.3955078,-20.03125,-103.875,-36.625,0.0,0.0,0.0
1664548981319,-0.4169922,0.16699219,0.3720703,-13.0,-124.125,-7.34375,0.0,0.0,0.0
1664548981377,-0.36816406,0.25585938,0.2529297,-20.5,-135.5,27.21875,0.0,0.0,0.0
1664548981433,-0.3486328,0.3125,0.3623047,-51.28125,-125.3125,57.53125,0.0,0.0,0.0
1664548981450,-0.28515625,-0.15332031,0.19824219,-65.9375,-78.53125,48.875,0.0,0.0,0.0
1664548981491,-0.3046875,-0.19921875,0.14941406,-43.53125,-96.0,56.25,-59.875,-39.5625,-70.5625
1664548981566,-0.109375,-0.24121094,0.015625,-90.65625,-40.8125,0.34375,0.0,0.0,0.0
1664548981607,0.041015625,-0.7138672,0.0126953125,-80.625,56.28125,-35.65625,0.0,0.0,0.0
1664548981609,-1.9863281,-1.984375,1.9931641,-273.375,-175.21875,-118.90625,0.0,0.0,0.0
1664548981647,1.3388672,1.9931641,1.8212891,-191.71875,-49.84375,-367.03125,0.0,0.0,0.0
1664548981682,-1.6699219,-1.984375,1.9482422,167.40625,-136.40625,-199.28125,0.0,0.0,0.0
1664548981704,2.0136719,1.7851562,0.9091797,-169.1875,98.625,-76.84375,0.0,0.0,0.0
1664548981766,0.6455078,-0.42089844,0.4921875,-116.875,45.65625,51.5625,0.0,0.0,0.0
1664548981786,-0.80371094,-0.4970703,0.27246094,-118.21875,51.40625,141.21875,0.0,0.0,0.0
1664548981826,-1.0214844,-1.3271484,0.061523438,-162.59375,70.625,51.0,0.0,0.0,0.0
1664548981852,-0.42578125,-0.7519531,0.056640625,-126.40625,59.8125,-27.34375,0.0,0.0,0.0
1664548981879,-0.2109375,-0.54785156,0.28125,-59.75,68.78125,-61.21875,0.0,0.0,0.0
1664548981914,-0.4716797,-1.3535156,0.4091797,-48.96875,85.09375,-84.5625,-57.3125,-86.9375,-86.75
1664548981971,-0.05859375,-0.7441406,0.34179688,-150.40625,100.46875,-61.28125,0.0,0.0,0.0
1664548982003,-0.19335938,-0.9199219,-0.017578125,-190.375,81.5625,7.125,0.0,0.0,0.0
1664548982041,-0.4453125,-1.0917969,-0.36621094,-188.3125,62.75,15.3125,0.0,0.0,0.0
1664548982116,-0.23339844,-0.94628906,-0.5,-146.125,71.65625,-13.8125,0.0,0.0,0.0
1664548982167,-0.26660156,-0.84765625,-0.4658203,-93.09375,53.71875,-9.28125,0.0,0.0,0.0
1664548982300,-0.26757812,-0.890625,-0.53027344,-77.53125,55.25,-18.09375,0.0,0.0,0.0
1664548982368,-0.23828125,-0.92089844,-0.5498047,-56.09375,42.0,-20.15625,0.0,0.0,0.0
1664548982423,-0.17871094,-0.9160156,-0.57128906,-30.875,16.5,-8.625,0.0,0.0,0.0
1664548982442,-0.19726562,-0.875,-0.5566406,-9.78125,-4.09375,0.78125,0.0,0.0,0.0
1664548982514,-0.19824219,-0.8613281,-0.5576172,10.75,-8.71875,1.15625,0.0,0.0,0.0
1664548982549,-0.19921875,-0.86328125,-0.5341797,28.8125,-11.03125,0.53125,0.0,0.0,0.0
1664548982597,-0.20507812,-0.8730469,-0.5341797,46.875,-15.4375,3.09375,0.0,0.0,0.0
1664548982658,-0.20898438,-0.90527344,-0.4345703,66.03125,-20.375,1.21875,-53.6875,-95.5,-127.5625
1664548982703,-0.22753906,-0.9111328,-0.42773438,72.3125,-29.84375,4.9375,0.0,0.0,0.0
1664548982728,-0.23925781,-1.03125,-0.36035156,92.21875,-40.8125,6.40625,0.0,0.0,0.0
1664548982798,-0.22265625,-0.95703125,-0.32714844,98.03125,-57.0625,13.71875,0.0,0.0,0.0
1664548982826,-0.27929688,-1.0146484,-0.24902344,114.0,-68.90625,23.0625,0.0,0.0,0.0
1664548982851,-0.203125,-0.7705078,-0.13085938,185.65625,-68.59375,50.875,0.0,0.0,0.0
1664548982900,-0.45703125,-1.2958984,-0.028320312,148.0,-27.09375,73.59375,0.0,0.0,0.0
1664548982927,-0.4345703,-0.98535156,0.08300781,104.3125,-19.9375,35.4375,0.0,0.0,0.0
1664548982966,-0.32226562,-0.85546875,0.07910156,71.15625,-30.21875,24.65625,0.0,0.0,0.0
1664548983029,-0.14648438,-0.90527344,0.44921875,139.65625,-130.5,17.3125,0.0,0.0,0.0
1664548983061,-0.3125,-0.6826172,0.48242188,98.8125,-58.59375,31.53125,0.0,0.0,0.0
1664548983083,-0.28320312,-0.6035156,0.5136719,77.21875,-30.875,29.59375,0.0,0.0,0.0
1664548983132,-0.38378906,-0.69140625,0.59765625,53.8125,-19.03125,17.5,-55.0625,-79.3125,-77.4375
1664548983157,-0.31347656,-0.65625,0.5498047,34.34375,-5.0,10.71875,0.0,0.0,0.0
1664548983173,-0.38476562,-0.6855469,0.5878906,26.65625,-0.65625,5.28125,0.0,0.0,0.0
1664548983231,-0.41796875,-0.7558594,0.57128906,26.46875,-2.6875,-6.0625,0.0,0.0,0.0
1664548983264,-0.40722656,-0.7783203,0.57128906,33.5,-4.6875,5.65625,0.0,0.0,0.0
1664548983266,-0.35546875,-0.6982422,0.5576172,28.625,-15.9375,19.28125,0.0,0.0,0.0
1664548983267,-0.43554688,-0.75,0.6152344,44.90625,-30.3125,20.6875,0.0,0.0,0.0
1664548983269,-0.1953125,-0.6513672,0.71875,52.125,-20.6875,14.03125,0.0,0.0,0.0
1664548983270,-0.18945312,-0.55859375,0.76464844,23.125,-3.34375,15.5,0.0,0.0,0.0
1664548983279,-0.39160156,-0.5361328,1.0673828,16.59375,0.9375,37.09375,0.0,0.0,0.0
1664548983310,-0.5048828,-0.9316406,0.6591797,14.40625,-18.3125,47.90625,0.0,0.0,0.0
1664548983339,-0.38085938,-1.0458984,0.5205078,38.09375,-57.71875,58.75,0.0,0.0,0.0
1664548983434,-0.4296875,-0.91796875,0.63964844,50.15625,-52.96875,52.46875,0.0,0.0,0.0
1664548983437,-0.18261719,-0.8173828,0.5957031,55.15625,-27.03125,18.78125,-52.9375,-60.5625,-64.5625
1664548983459,-0.47753906,-0.5566406,0.8378906,41.125,-33.75,20.0,0.0,0.0,0.0
1664548983523,-0.9404297,-0.6230469,0.8466797,52.25,-36.5625,14.6875,0.0,0.0,0.0
1664548983548,-0.3154297,-0.6582031,0.9199219,28.4375,-57.1875,-3.625,0.0,0.0,0.0
1664548983581,-0.3359375,-0.57128906,0.84765625,-6.28125,-45.21875,-14.46875,0.0,0.0,0.0
1664548983641,-0.33984375,-0.59375,0.71875,-24.65625,-23.75,-35.0625,0.0,0.0,0.0
1664548983671,-0.33496094,-0.7285156,0.7451172,-34.5625,-28.25,-49.6875,0.0,0.0,0.0
1664548983700,-0.3076172,-0.5205078,0.77246094,-8.5,-30.5625,-42.375,0.0,0.0,0.0
1664548983770,-0.28710938,-0.4638672,0.71875,17.6875,-30.875,-29.125,0.0,0.0,0.0
1664548983790,-0.2607422,-0.32714844,0.765625,34.34375,-28.75,-1.84375,0.0,0.0,0.0
1664548983818,-0.19726562,0.01953125,0.84472656,50.15625,-20.375,22.1875,0.0,0.0,0.0
1664548983880,-0.30371094,0.09472656,0.9628906,57.1875,-49.6875,44.71875,0.0,0.0,0.0
1664548983909,-0.030273438,0.12597656,0.96191406,70.1875,-84.65625,80.375,-35.6875,-52.3125,-61.25
1664548983939,0.048828125,-0.13378906,0.90234375,73.59375,-109.4375,90.0,0.0,0.0,0.0
1664548984001,0.22070312,0.038085938,0.8378906,65.5,-78.96875,77.25,0.0,0.0,0.0
1664548984030,0.17285156,0.14550781,0.7597656,63.03125,-0.65625,62.65625,0.0,0.0,0.0
1664548984063,0.3388672,-0.026367188,1.1210938,41.625,-3.96875,35.375,0.0,0.0,0.0
1664548984120,0.16308594,-0.28125,1.0703125,28.75,18.0625,13.53125,0.0,0.0,0.0
1664548984151,-0.072265625,0.013671875,1.1748047,14.9375,43.15625,-1.90625,0.0,0.0,0.0
1664548984179,-0.2939453,-0.34375,1.0820312,14.40625,28.875,-19.71875,0.0,0.0,0.0
1664548984242,-0.16113281,-0.021484375,1.0800781,35.625,-5.25,-1.34375,0.0,0.0,0.0
1664548984270,-0.13085938,-0.1171875,1.0058594,14.46875,4.03125,-13.03125,0.0,0.0,0.0
1664548984299,-0.123046875,-0.15332031,0.9267578,30.03125,1.78125,-29.96875,0.0,0.0,0.0
1664548984360,0.0068359375,0.001953125,0.8935547,37.21875,-9.625,-23.40625,0.0,0.0,0.0
1664548984389,0.0087890625,-0.10644531,1.2001953,52.375,2.25,-4.96875,0.0,0.0,0.0
1664548984453,-0.25976562,0.0546875,1.4052734,76.15625,-21.90625,-5.03125,-30.875,-35.5,-60.5
1664548984479,-0.15429688,0.23730469,1.0976562,59.8125,-22.46875,-9.65625,0.0,0.0,0.0
1664548984510,-0.034179688,0.3701172,1.0087891,-13.3125,58.59375,-39.125,0.0,0.0,0.0
1664548984540,0.00390625,0.18554688,1.1914062,-46.03125,84.53125,-81.75,0.0,0.0,0.0
1664548984602,0.03125,0.17675781,1.1015625,-52.3125,68.5625,-77.09375,0.0,0.0,0.0
1664548984630,-0.08984375,0.045898438,0.96875,-53.15625,86.375,-69.0,0.0,0.0,0.0
1664548984665,-0.11328125,-0.044921875,1.0517578,-43.21875,121.34375,-70.9375,0.0,0.0,0.0
1664548984717,-0.32910156,-0.12792969,1.0869141,3.46875,132.28125,-49.15625,0.0,0.0,0.0
1664548984750,-0.5683594,0.080078125,1.0839844,31.0625,90.21875,-26.03125,0.0,0.0,0.0
1664548984779,-0.36816406,-0.07128906,0.765625,31.90625,95.28125,-17.09375,0.0,0.0,0.0
1664548984838,-0.4892578,0.08886719,0.77441406,37.53125,96.75,-17.71875,0.0,0.0,0.0
1664548984866,-0.53027344,0.061523438,0.90722656,20.5625,88.5625,-1.3125,0.0,0.0,0.0
1664548984898,-0.6855469,-0.12402344,0.8730469,12.5,88.03125,7.5625,-67.0625,-35.375,-75.1875
1664548984963,-0.6230469,-0.038085938,0.66308594,32.84375,80.34375,32.9375,0.0,0.0,0.0
1664548984990,-0.7265625,-0.049804688,0.6669922,36.5,112.6875,36.65625,0.0,0.0,0.0
1664548985021,-1.0634766,0.111328125,0.6074219,36.125,123.34375,35.09375,0.0,0.0,0.0
1664548985080,-0.9404297,0.22753906,0.4453125,19.21875,149.59375,47.53125,0.0,0.0,0.0
1664548985111,-0.7294922,0.20703125,0.21582031,7.625,171.5625,66.9375,0.0,0.0,0.0
1664548985138,-0.7998047,-0.06347656,0.2939453,-20.8125,226.6875,21.21875,0.0,0.0,0.0
1664548985200,-0.4765625,0.060546875,-0.0078125,-16.84375,198.875,21.96875,0.0,0.0,0.0
1664548985230,-0.53515625,0.1015625,0.18652344,-4.65625,133.6875,53.5,0.0,0.0,0.0
1664548985266,-0.8876953,-0.005859375,0.024414062,-30.21875,96.875,41.0625,0.0,0.0,0.0
1664548985320,-0.6582031,0.09472656,0.00390625,-43.71875,92.59375,-10.875,0.0,0.0,0.0
1664548985351,-0.8769531,0.18066406,-0.16699219,-3.84375,43.28125,-20.59375,0.0,0.0,0.0
1664548985385,-1.1005859,0.29101562,-0.18359375,7.1875,-4.6875,-13.1875,0.0,0.0,0.0
1664548985439,-1.3242188,0.34179688,-0.08203125,21.90625,-21.125,-12.71875,-78.125,-22.75,-119.75
1664548985468,-1.203125,0.107421875,-0.12890625,22.8125,-17.03125,4.25,0.0,0.0,0.0
1664548985501,-1.2939453,-0.07910156,-0.09082031,60.78125,-21.65625,1.625,0.0,0.0,0.0
1664548985562,-0.9794922,0.18359375,-0.08105469,61.46875,-3.59375,-10.40625,0.0,0.0,0.0
1664548985591,-0.80371094,0.36328125,-0.18847656,-4.21875,21.1875,-2.15625,0.0,0.0,0.0
1664548985619,-0.8964844,0.23535156,-0.13183594,-20.5,20.34375,4.375,0.0,0.0,0.0
1664548985680,-0.921875,0.23242188,-0.051757812,-25.9375,14.21875,4.1875,0.0,0.0,0.0
1664548985711,-0.92871094,0.13867188,-0.083984375,-41.4375,16.4375,13.09375,0.0,0.0,0.0
1664548985737,-1.0664062,0.047851562,-0.06640625,-29.90625,19.28125,18.53125,0.0,0.0,0.0
1664548985799,-1.1103516,0.103515625,-0.099609375,-18.1875,18.0625,14.28125,0.0,0.0,0.0
1664548985832,-1.1523438,0.12792969,-0.15332031,4.375,1.21875,11.15625,0.0,0.0,0.0
1664548985859,-1.1103516,0.35253906,-0.18945312,-6.40625,-11.53125,2.0,0.0,0.0,0.0
1664548985923,-0.8935547,0.33984375,-0.1171875,-14.15625,-15.375,-1.46875,-77.25,-20.9375,-122.0
1664548985951,-0.98535156,0.23925781,-0.009765625,-20.15625,-16.96875,0.40625,0.0,0.0,0.0
1664548985978,-0.91796875,0.17773438,0.041015625,-31.3125,-43.375,1.5,0.0,0.0,0.0
1664548986044,-0.98339844,0.11035156,0.0625,-28.375,-86.34375,-1.1875,0.0,0.0,0.0
1664548986071,-1.109375,0.32226562,0.12792969,-8.71875,-118.34375,-12.84375,0.0,0.0,0.0
1664548986101,-1.1591797,0.40722656,0.12597656,26.0,-216.84375,0.84375,0.0,0.0,0.0
1664548986160,-1.1083984,0.375,0.35546875,95.5625,-258.0,12.625,0.0,0.0,0.0
1664548986191,-1.0322266,0.29296875,0.17382812,42.90625,-160.5625,-43.59375,0.0,0.0,0.0
1664548986218,-0.42871094,0.020507812,0.08496094,23.75,13.75,-68.875,0.0,0.0,0.0
1664548986282,0.34570312,0.27929688,0.076171875,-29.25,164.875,-43.34375,0.0,0.0,0.0
1664548986309,-0.041992188,0.49902344,-0.3486328,-85.34375,297.4375,25.0625,0.0,0.0,0.0
1664548986338,-1.9863281,0.9316406,-0.0390625,-6.96875,98.40625,174.1875,0.0,0.0,0.0
1664548986400,-0.8564453,0.24511719,-0.009765625,-44.125,179.6875,18.0,0.0,0.0,0.0
1664548986432,-0.71972656,-0.25390625,-0.10644531,-82.46875,94.3125,-13.6875,-74.25,-19.0,-117.375
1664548986463,-1.1289062,0.4580078,0.0859375,66.28125,25.59375,12.375,0.0,0.0,0.0
1664548986519,-1.2753906,0.3486328,0.19921875,-8.96875,-3.84375,-15.09375,0.0,0.0,0.0
1664548986548,-0.80371094,0.24414062,-0.3125,-50.65625,3.375,-23.875,0.0,0.0,0.0
1664548986580,-0.94628906,0.19921875,-0.21289062,15.625,-3.09375,-7.9375,0.0,0.0,0.0
1664548986641,-0.8105469,0.33691406,-0.18847656,8.78125,2.75,-8.375,0.0,0.0,0.0
1664548986683,-0.8955078,0.30273438,-0.22949219,7.375,16.1875,-7.03125,0.0,0.0,0.0
1664548986733,-0.9707031,0.265625,-0.18945312,1.9375,16.5,-7.15625,0.0,0.0,0.0
1664548986758,-1.0302734,0.27441406,-0.12988281,4.6875,1.96875,-9.53125,0.0,0.0,0.0
1664548986788,-0.9453125,0.28320312,-0.09863281,8.21875,-9.40625,-18.4375,0.0,0.0,0.0
1664548986819,-0.9316406,0.20703125,-0.20996094,9.9375,-15.375,-15.9375,0.0,0.0,0.0
1664548986882,-1.0429688,0.21289062,-0.19335938,32.15625,-19.15625,-15.875,0.0,0.0,0.0
1664548986911,-0.8564453,0.3720703,-0.11230469,39.53125,-24.84375,-17.65625,-77.875,-21.125,-119.4375
1664548986947,-0.96875,0.35546875,-0.17773438,36.5,-26.0625,-21.0,0.0,0.0,0.0
1664548986998,-0.93066406,0.41308594,-0.072265625,34.25,-26.25,-27.84375,0.0,0.0,0.0
1664548987029,-0.91503906,0.3017578,-0.12109375,19.59375,-22.15625,-29.0,0.0,0.0,0.0
1664548987058,-0.9013672,0.1015625,0.005859375,22.875,-31.90625,-32.90625,0.0,0.0,0.0
1664548987120,-1.1650391,0.0029296875,0.08203125,22.6875,-52.71875,-42.1875,0.0,0.0,0.0
1664548987150,-1.1972656,-0.016601562,0.087890625,43.4375,-106.25,-47.5,0.0,0.0,0.0
1664548987178,-0.6142578,0.08203125,0.17871094,37.84375,-119.6875,-56.59375,0.0,0.0,0.0
1664548987238,-0.5029297,0.032226562,0.1796875,19.9375,-80.625,-26.25,0.0,0.0,0.0
1664548987267,-1.1503906,9.765625E-4,0.23144531,14.34375,-80.875,-34.1875,0.0,0.0,0.0
1664548987299,-0.6923828,0.26367188,0.47265625,8.84375,-123.71875,-48.90625,0.0,0.0,0.0
1664548987362,-0.58691406,-0.1875,0.42285156,8.0625,-125.53125,-35.59375,0.0,0.0,0.0
1664548987390,-0.50878906,0.16210938,0.29492188,8.78125,-176.09375,-21.1875,0.0,0.0,0.0
1664548987420,-0.39160156,0.099609375,0.4189453,-3.53125,-186.28125,0.0,-76.625,-36.4375,-88.875
1664548987482,-0.640625,0.15722656,0.41601562,-26.25,-212.46875,36.71875,0.0,0.0,0.0
1664548987510,-0.72558594,0.28222656,0.3623047,-28.03125,-177.3125,25.25,0.0,0.0,0.0
1664548987538,-0.36132812,0.20019531,0.34570312,-53.65625,-156.0625,33.375,0.0,0.0,0.0
1664548987599,-0.46777344,-0.026367188,0.59765625,-86.1875,-132.0,49.84375,0.0,0.0,0.0
1664548987629,-0.32226562,-0.359375,0.5332031,-95.34375,-113.8125,22.8125,0.0,0.0,0.0
1664548987661,-0.18066406,-0.18261719,0.37304688,-142.59375,-77.6875,7.375,0.0,0.0,0.0
1664548987721,0.030273438,-0.36621094,0.18554688,-191.90625,-32.65625,14.9375,0.0,0.0,0.0
1664548987751,0.13574219,-0.47460938,-0.05859375,-212.15625,13.5,16.09375,0.0,0.0,0.0
1664548987780,-1.9863281,-1.984375,1.9931641,219.40625,-215.9375,-137.90625,0.0,0.0,0.0
1664548987842,-1.4277344,-0.9423828,0.6113281,-216.6875,-191.8125,-209.5625,0.0,0.0,0.0
1664548987868,0.96875,0.94628906,0.8544922,-147.40625,4.78125,-149.84375,0.0,0.0,0.0
1664548987900,1.4990234,-0.27539062,-0.0029296875,-174.6875,128.25,-30.59375,-35.5625,-76.75,-69.375
1664548987961,-0.04296875,-0.7626953,-0.19042969,-32.71875,109.8125,110.875,0.0,0.0,0.0
1664548987989,-0.23828125,-0.2109375,0.9033203,-10.5625,128.96875,100.9375,0.0,0.0,0.0
1664548988019,-0.5341797,-1.4941406,0.6855469,-111.53125,66.90625,59.5625,0.0,0.0,0.0
1664548988081,-0.45996094,-1.4335938,0.111328125,-206.5,114.6875,-79.90625,0.0,0.0,0.0
1664548988111,-0.08984375,-0.6875,0.2529297,-210.34375,133.75,-117.8125,0.0,0.0,0.0
1664548988149,-0.1328125,-0.83984375,0.0068359375,-118.0,73.96875,-12.03125,0.0,0.0,0.0
1664548988198,-0.4169922,-1.1904297,-0.36914062,-209.53125,41.28125,17.9375,0.0,0.0,0.0
1664548988230,-0.23339844,-1.359375,-0.81152344,-158.8125,72.6875,-41.40625,0.0,0.0,0.0
1664548988265,-0.1484375,-0.9296875,-0.29101562,-51.53125,56.59375,-42.25,0.0,0.0,0.0
1664548988321,0.026367188,-0.73046875,-0.24707031,-17.65625,8.3125,12.5,0.0,0.0,0.0
1664548988349,-0.08691406,-1.1474609,-0.44921875,-30.15625,-16.21875,27.34375,0.0,0.0,0.0
1664548988381,-0.11035156,-0.875,-0.3388672,-22.71875,5.8125,14.375,0.0,0.0,0.0
1664548988443,-0.16796875,-0.84765625,-0.2861328,-36.4375,8.75,18.96875,-49.1875,-99.5625,-118.875
1664548988468,-0.16699219,-0.828125,-0.36328125,-78.9375,20.34375,10.84375,0.0,0.0,0.0
1664548988501,-0.22753906,-0.90234375,-0.4970703,-92.84375,24.0625,-0.4375,0.0,0.0,0.0
1664548988559,-0.14160156,-0.87890625,-0.7138672,-71.84375,13.5,-8.5,0.0,0.0,0.0
1664548988594,-0.18554688,-0.86816406,-0.60253906,-28.4375,1.90625,-8.125,0.0,0.0,0.0
1664548988620,-0.140625,-0.84277344,-0.5839844,-15.9375,5.0,-6.84375,0.0,0.0,0.0
1664548988713,-0.14648438,-0.8203125,-0.57910156,-7.625,-0.78125,-3.1875,0.0,0.0,0.0
1664548988719,-0.14160156,-0.8642578,-0.6845703,26.84375,-6.03125,-2.03125,0.0,0.0,0.0
1664548988739,-0.13085938,-0.875,-0.6660156,78.53125,-17.6875,-1.34375,0.0,0.0,0.0
1664548988826,-0.15625,-0.9355469,-0.5761719,114.625,-39.78125,7.3125,0.0,0.0,0.0
1664548988859,-0.13769531,-0.9873047,-0.4716797,140.625,-61.28125,15.0625,0.0,0.0,0.0
1664548988884,-0.21875,-0.9716797,-0.34960938,135.75,-66.21875,22.5,0.0,0.0,0.0
1664548988953,-0.18554688,-0.9667969,-0.22070312,144.78125,-67.3125,21.09375,-53.125,-97.4375,-112.125
1664548988989,-0.23339844,-0.96972656,-0.19433594,138.65625,-77.5,32.34375,0.0,0.0,0.0
1664548989039,-0.33691406,-1.0390625,-0.03125,161.75,-76.46875,23.96875,0.0,0.0,0.0
1664548989075,-0.3251953,-0.9941406,0.061523438,164.53125,-75.6875,19.46875,0.0,0.0,0.0
1664548989105,-0.32910156,-0.9003906,0.2529297,161.5,-69.75,11.71875,0.0,0.0,0.0
1664548989139,-0.20996094,-0.82128906,0.41015625,142.5625,-58.90625,3.09375,0.0,0.0,0.0
1664548989198,-0.13476562,-0.78027344,0.50097656,117.96875,-40.53125,5.46875,0.0,0.0,0.0
1664548989262,-0.14550781,-0.69433594,0.5732422,101.4375,-34.0,1.625,0.0,0.0,0.0
1664548989292,-0.18066406,-0.58203125,0.6591797,79.03125,-27.8125,-4.46875,0.0,0.0,0.0
1664548989355,-0.099609375,-0.5546875,0.7597656,60.125,-18.96875,0.78125,0.0,0.0,0.0
1664548989395,-0.19628906,-0.6191406,0.78027344,38.3125,-11.53125,11.53125,0.0,0.0,0.0
1664548989422,-0.265625,-0.5673828,0.7441406,24.21875,-11.15625,6.625,0.0,0.0,0.0
1664548989469,-0.22460938,-0.62109375,0.7060547,24.78125,-11.28125,-2.28125,0.0,0.0,0.0
1664548989522,-0.15527344,-0.76660156,0.70703125,20.8125,-5.65625,-7.03125,-46.8125,-69.5625,-64.375
1664548989546,-0.17089844,-0.6972656,0.7519531,17.625,-6.28125,-4.40625,0.0,0.0,0.0
1664548989589,-0.2783203,-0.6777344,0.71875,13.53125,-30.28125,3.34375,0.0,0.0,0.0
1664548989615,-0.055664062,-0.54003906,0.8623047,15.8125,-18.90625,4.8125,0.0,0.0,0.0
1664548989653,-0.048828125,-0.6015625,0.7060547,7.375,0.5625,18.96875,0.0,0.0,0.0
1664548989730,0.009765625,-0.8144531,0.8876953,9.6875,21.96875,31.40625,0.0,0.0,0.0
1664548989760,-0.1875,-0.92578125,0.7246094,15.8125,25.03125,47.21875,0.0,0.0,0.0
1664548989801,-0.39453125,-1.1484375,0.7167969,66.09375,3.96875,44.65625,0.0,0.0,0.0
1664548989846,-0.3154297,-0.8457031,0.81152344,95.03125,-52.59375,37.15625,0.0,0.0,0.0
1664548989887,0.09082031,-0.67871094,0.7392578,97.21875,-49.625,14.4375,0.0,0.0,0.0
1664548989909,-0.103515625,-0.7314453,1.0498047,26.59375,-53.71875,-10.75,0.0,0.0,0.0
1664548989964,-0.14160156,-0.8486328,0.95214844,-20.4375,-55.03125,-44.03125,0.0,0.0,0.0
1664548990012,-0.036132812,-0.9472656,0.9921875,-26.6875,-65.59375,-91.5,-39.4375,-56.0625,-58.125
1664548990038,0.08496094,-0.80371094,0.83203125,-26.5625,-51.875,-110.84375,0.0,0.0,0.0
1664548990091,0.10839844,-0.69140625,0.64160156,-16.53125,-29.53125,-124.15625,0.0,0.0,0.0
1664548990128,0.01171875,-0.58984375,0.6347656,-28.5,-3.53125,-119.8125,0.0,0.0,0.0
1664548990154,0.17382812,-0.54785156,0.59472656,-10.9375,40.0,-114.34375,0.0,0.0,0.0
1664548990216,0.07421875,-0.3251953,0.6591797,-8.0,55.71875,-65.6875,0.0,0.0,0.0
1664548990250,-0.06640625,-0.049804688,0.6123047,19.71875,34.4375,16.9375,0.0,0.0,0.0
1664548990271,-0.37695312,0.16894531,0.80859375,67.25,19.53125,60.90625,0.0,0.0,0.0
1664548990321,-0.38476562,0.033203125,1.1279297,64.25,29.1875,48.8125,0.0,0.0,0.0
1664548990355,-0.29492188,-0.022460938,1.0576172,35.625,26.9375,43.4375,0.0,0.0,0.0
1664548990384,-0.3359375,-0.044921875,1.3173828,15.8125,-8.21875,47.40625,0.0,0.0,0.0
1664548990437,-0.1484375,-0.28710938,0.94433594,35.03125,-23.0625,32.5625,0.0,0.0,0.0
1664548990497,0.14746094,-0.0126953125,1.0820312,36.5625,-35.75,30.75,0.0,0.0,0.0
1664548990499,0.0146484375,-0.07324219,1.1328125,10.90625,-12.25,12.3125,-36.75,-52.3125,-60.9375
1664548990548,0.09375,-0.23632812,1.0859375,3.71875,-10.0,-10.875,0.0,0.0,0.0
1664548990568,-0.08496094,-0.2763672,1.0527344,13.65625,-12.875,-41.28125,0.0,0.0,0.0
1664548990612,-0.19335938,-0.31152344,1.0703125,31.0,-23.625,-59.09375,0.0,0.0,0.0
1664548990656,-0.1796875,-0.37597656,0.87109375,33.0,-35.875,-61.96875,0.0,0.0,0.0
1664548990695,-0.23535156,-0.29296875,0.8613281,47.78125,-69.21875,-47.5625,0.0,0.0,0.0
1664548990727,0.23730469,-0.14746094,0.94140625,17.5625,-63.96875,-65.8125,0.0,0.0,0.0
1664548990789,0.14453125,-0.46777344,0.94628906,15.9375,-42.96875,-64.28125,0.0,0.0,0.0
1664548990800,0.21484375,-0.23828125,1.0722656,19.21875,-45.09375,-90.90625,0.0,0.0,0.0
1664548990808,0.65722656,0.018554688,0.8310547,18.71875,-34.125,-101.15625,0.0,0.0,0.0
1664548990898,1.0644531,-0.045898438,0.7402344,-1.15625,-33.875,-70.3125,0.0,0.0,0.0
1664548990918,0.8183594,-0.15039062,0.65625,-2.5625,20.9375,-52.75,0.0,0.0,0.0
1664548990966,0.5908203,-0.095703125,0.80859375,0.25,47.1875,2.78125,-24.4375,-44.1875,-59.9375
1664548991017,0.328125,-0.076171875,1.1308594,17.15625,33.09375,40.28125,0.0,0.0,0.0
1664548991046,0.2783203,0.0625,0.9716797,26.96875,28.28125,36.84375,0.0,0.0,0.0
1664548991083,0.20507812,-0.02734375,0.85253906,12.8125,31.4375,28.71875,0.0,0.0,0.0
1664548991145,0.22851562,0.040039062,0.77246094,-7.8125,43.21875,22.03125,0.0,0.0,0.0
1664548991180,0.18261719,-0.01953125,0.98828125,-10.3125,47.125,34.21875,0.0,0.0,0.0
1664548991218,0.046875,-0.20898438,0.98339844,6.40625,37.3125,35.15625,0.0,0.0,0.0
1664548991309,0.01953125,-0.15820312,1.1787109,7.1875,32.84375,18.46875,0.0,0.0,0.0
1664548991339,0.17089844,-0.083984375,1.2880859,1.875,24.65625,18.28125,0.0,0.0,0.0
1664548991397,-0.021484375,-0.06347656,1.5507812,-3.90625,75.09375,11.65625,0.0,0.0,0.0
1664548991416,0.032226562,0.076171875,1.4316406,31.5625,64.46875,14.875,0.0,0.0,0.0
1664548991456,-0.125,-0.14160156,1.0732422,16.0,88.75,46.90625,0.0,0.0,0.0
1664548991486,-0.14453125,-0.036132812,1.2441406,-3.25,126.96875,52.84375,0.0,0.0,0.0
1664548991543,-0.16015625,-0.11621094,1.0673828,-37.71875,155.71875,47.96875,-46.8125,-40.0,-64.6875
1664548991579,-0.028320312,-0.23144531,0.8515625,-56.40625,181.34375,22.5625,0.0,0.0,0.0
1664548991631,-0.4580078,-0.25097656,0.7910156,1.46875,124.59375,6.46875,0.0,0.0,0.0
1664548991686,-0.33203125,-0.11230469,0.95214844,5.0625,139.28125,-6.0625,0.0,0.0,0.0
1664548991727,-0.69140625,-0.3173828,0.7470703,32.65625,136.59375,12.5,0.0,0.0,0.0
1664548991763,-0.7714844,-0.041992188,0.81347656,63.78125,134.09375,-5.5625,0.0,0.0,0.0
1664548991815,-0.71777344,0.2734375,0.53027344,53.09375,115.4375,20.0,0.0,0.0,0.0
1664548991842,-0.6582031,0.18261719,0.45507812,-4.03125,148.8125,33.96875,0.0,0.0,0.0
1664548991876,-1.0185547,0.0087890625,0.38671875,-9.46875,151.375,47.84375,0.0,0.0,0.0
1664548991924,-0.82421875,-0.015625,0.20898438,-29.375,173.09375,35.6875,0.0,0.0,0.0
1664548991962,-0.5332031,0.020507812,0.047851562,-14.84375,192.21875,36.25,0.0,0.0,0.0
1664548991982,-0.7626953,-0.1875,0.12402344,-21.0,168.53125,57.0625,0.0,0.0,0.0
1664548992061,-1.0214844,-0.18457031,0.12011719,66.03125,102.125,50.21875,-81.625,-28.625,-113.4375
1664548992118,-0.59375,-0.029296875,0.25390625,52.375,88.6875,25.6875,0.0,0.0,0.0
1664548992138,-0.8613281,0.07421875,0.15429688,-17.65625,82.84375,12.875,0.0,0.0,0.0
1664548992176,-1.0136719,0.06640625,0.08691406,-15.3125,54.21875,16.40625,0.0,0.0,0.0
1664548992197,-0.97265625,0.119140625,0.10253906,-13.0,25.21875,33.6875,0.0,0.0,0.0
1664548992212,-1.0654297,0.05859375,0.14160156,-3.25,35.40625,20.96875,0.0,0.0,0.0
1664548992269,-1.1865234,0.08691406,-0.1484375,-6.59375,13.5625,21.46875,0.0,0.0,0.0
1664548992337,-1.2197266,0.13964844,-0.15625,-2.21875,0.25,19.9375,0.0,0.0,0.0
1664548992340,-1.1601562,0.57910156,-0.20605469,1.15625,-35.28125,6.8125,0.0,0.0,0.0
1664548992423,-0.8613281,0.5371094,-0.01953125,0.1875,-31.65625,-6.0,0.0,0.0,0.0
1664548992464,-0.9794922,0.23339844,0.033203125,-6.125,-74.34375,12.8125,0.0,0.0,0.0
1664548992483,-0.94921875,0.32910156,0.01171875,-73.0,-92.78125,11.875,0.0,0.0,0.0
1664548992533,-0.9003906,0.6064453,-0.013671875,-91.875,-100.09375,-1.25,0.0,0.0,0.0
1664548992558,-0.890625,0.4140625,0.030273438,21.21875,-159.21875,23.53125,-77.375,-21.6875,-113.3125
1664548992604,-0.9921875,0.16796875,0.35058594,34.46875,-154.0,46.25,0.0,0.0,0.0
1664548992648,-0.89746094,0.28027344,0.2939453,-7.09375,-84.59375,14.03125,0.0,0.0,0.0
1664548992700,-0.6044922,0.375,0.14355469,-14.96875,12.9375,-8.625,0.0,0.0,0.0
1664548992721,-0.36914062,0.265625,0.16699219,-37.0,112.8125,3.34375,0.0,0.0,0.0
1664548992794,-0.4140625,0.38183594,-0.033203125,-46.15625,172.375,39.34375,0.0,0.0,0.0
1664548992847,-1.4003906,0.51953125,-0.049804688,-36.375,112.9375,61.375,0.0,0.0,0.0
1664548992872,-1.2841797,0.1328125,0.3173828,-4.15625,132.5,-2.53125,0.0,0.0,0.0
1664548992941,-1.1943359,0.5966797,0.13574219,-99.1875,102.65625,-25.34375,0.0,0.0,0.0
1664548992959,-1.0029297,0.18359375,0.22265625,-51.28125,21.3125,-17.90625,0.0,0.0,0.0
1664548992991,-0.8808594,0.16601562,-0.19335938,-21.90625,-4.15625,-4.46875,0.0,0.0,0.0
1664548993050,-0.86816406,0.23828125,0.06542969,-3.59375,-5.0625,-2.8125,0.0,0.0,0.0
1664548993079,-0.890625,0.2861328,0.001953125,-8.0625,18.8125,-8.5625,-75.4375,-19.75,-116.125
1664548993109,-0.92871094,0.38671875,-0.06640625,-2.625,30.21875,-12.09375,0.0,0.0,0.0
1664548993167,-0.98828125,0.35839844,0.0107421875,-17.09375,15.9375,-7.40625,0.0,0.0,0.0
1664548993217,-1.0214844,0.2998047,0.0068359375,-15.875,10.5625,-8.1875,0.0,0.0,0.0
1664548993263,-1.0009766,0.21972656,-0.015625,-17.9375,13.625,-15.75,0.0,0.0,0.0
1664548993300,-0.95410156,0.24414062,-0.0048828125,-10.3125,7.75,-11.71875,0.0,0.0,0.0
1664548993352,-0.9736328,0.22558594,0.0029296875,-3.25,11.125,-9.65625,0.0,0.0,0.0
1664548993361,-0.96484375,0.22167969,-0.05078125,3.84375,10.9375,-9.34375,0.0,0.0,0.0
1664548993433,-0.9609375,0.26757812,-0.030273438,7.8125,8.84375,-10.5625,0.0,0.0,0.0
1664548993476,-0.9736328,0.29785156,-0.061523438,4.875,6.0,-10.28125,0.0,0.0,0.0
1664548993510,-0.9980469,0.29492188,-0.08691406,1.6875,-0.34375,-12.46875,0.0,0.0,0.0
1664548993564,-0.9433594,0.23632812,-0.06542969,1.59375,-6.78125,-17.96875,0.0,0.0,0.0
1664548993589,-0.9394531,0.171875,-0.09375,3.0,-8.15625,-20.03125,0.0,0.0,0.0
1664548993612,-0.953125,0.19726562,-0.087890625,14.03125,-18.1875,-22.53125,-79.0625,-23.375,-116.875
1664548993658,-0.9658203,0.21191406,-0.06640625,28.125,-33.125,-25.46875,0.0,0.0,0.0
1664548993684,-0.9892578,0.16992188,-0.111328125,31.71875,-51.8125,-26.875,0.0,0.0,0.0
1664548993734,-0.9785156,0.12011719,-0.0625,36.6875,-87.34375,-26.5,0.0,0.0,0.0
1664548993746,-0.9326172,0.11425781,0.14257812,18.25,-125.46875,-31.5625,0.0,0.0,0.0
1664548993773,-0.82714844,0.12695312,0.265625,-4.15625,-102.34375,-44.875,0.0,0.0,0.0
1664548993830,-0.8173828,0.0703125,0.21582031,2.5,-78.96875,-26.3125,0.0,0.0,0.0
1664548993872,-0.9863281,0.2109375,0.48046875,-5.6875,-98.3125,-50.5625,0.0,0.0,0.0
1664548993898,-0.5498047,0.0625,0.41210938,7.8125,-82.21875,-29.5625,0.0,0.0,0.0
1664548993935,-1.0820312,0.10253906,0.6074219,-20.34375,-91.125,-40.40625,0.0,0.0,0.0
1664548993999,-0.7402344,-0.22460938,0.3955078,-14.09375,-89.96875,-58.5,0.0,0.0,0.0
1664548994027,-0.74609375,0.001953125,0.46875,-1.65625,-83.84375,-58.5,0.0,0.0,0.0
1664548994065,-0.5488281,0.22167969,0.47753906,-5.25,-99.46875,-37.25,-77.375,-37.3125,-87.625
1664548994163,-0.66796875,0.103515625,0.4375,-32.28125,-76.28125,-30.28125,0.0,0.0,0.0
1664548994203,-0.59472656,0.12988281,0.4765625,-32.0625,-97.15625,-13.9375,0.0,0.0,0.0
1664548994232,-0.47265625,0.1796875,0.5488281,-29.375,-115.40625,15.78125,0.0,0.0,0.0
1664548994330,-0.4296875,0.15820312,0.50683594,-24.53125,-121.9375,46.75,0.0,0.0,0.0
1664548994333,-0.32714844,0.18847656,0.34277344,-28.8125,-92.8125,51.875,0.0,0.0,0.0
1664548994363,-0.22753906,-0.001953125,0.14453125,-44.25,-56.6875,53.03125,0.0,0.0,0.0
1664548994475,-0.19726562,-0.16503906,0.07421875,-84.71875,-6.21875,27.21875,0.0,0.0,0.0
1664548994478,-0.19042969,-0.25097656,0.06933594,-122.0625,17.28125,-2.625,0.0,0.0,0.0
1664548994510,-0.17871094,-0.5527344,0.19140625,-135.1875,15.3125,-31.6875,0.0,0.0,0.0
1664548994591,-1.8339844,-0.025390625,1.9931641,-171.6875,-126.75,-33.9375,0.0,0.0,0.0
1664548994620,1.1367188,-0.59277344,0.47753906,-187.875,-14.15625,-379.21875,0.0,0.0,0.0
1664548994656,-0.89746094,-1.984375,0.23925781,104.65625,-214.90625,-133.0625,0.0,0.0,0.0
1664548994738,1.1962891,2.015625,1.1259766,-23.6875,18.875,-66.53125,-46.0625,-73.4375,-67.375
1664548994739,0.7216797,-1.5644531,0.7548828,-82.59375,85.28125,69.0,0.0,0.0,0.0
1664548994779,-0.95996094,-0.63964844,0.5673828,-54.375,74.28125,68.53125,0.0,0.0,0.0
1664548994842,-0.09765625,-0.03515625,0.33984375,-205.5625,103.875,-49.34375,0.0,0.0,0.0
1664548994864,-0.34472656,-0.9970703,0.053710938,-225.71875,108.21875,-43.96875,0.0,0.0,0.0
1664548994866,-0.17578125,-1.25,0.040039062,-169.4375,94.625,-61.34375,0.0,0.0,0.0
1664548994957,-0.23828125,-1.2402344,-0.0546875,-190.625,91.5,-47.5,0.0,0.0,0.0
1664548994969,-0.16210938,-0.9375,-0.18164062,-173.90625,71.34375,-23.875,0.0,0.0,0.0
1664548994995,-0.21972656,-1.0429688,-0.2861328,-173.09375,39.625,-3.96875,0.0,0.0,0.0
1664548995037,-0.11621094,-0.9423828,-0.29589844,-117.875,55.65625,26.78125,0.0,0.0,0.0
1664548995074,-0.16601562,-0.921875,-0.4267578,-92.21875,55.78125,19.9375,0.0,0.0,0.0
1664548995075,-0.18847656,-0.8359375,-0.48046875,-101.1875,55.3125,9.09375,0.0,0.0,0.0
1664548995132,-0.22753906,-0.8720703,-0.58984375,-105.71875,46.5625,-1.0,-52.9375,-95.5,-122.4375
1664548995184,-0.15527344,-0.8359375,-0.6464844,-81.375,31.0625,-6.53125,0.0,0.0,0.0
1664548995186,-0.1015625,-0.80078125,-0.6464844,-69.53125,17.875,-3.75,0.0,0.0,0.0
1664548995216,-0.09472656,-0.8125,-0.7060547,-54.6875,4.65625,0.59375,0.0,0.0,0.0
1664548995243,-0.053710938,-0.70703125,-0.5859375,-38.53125,3.375,-1.46875,0.0,0.0,0.0
1664548995244,-0.21875,-0.78125,-0.6982422,-50.90625,3.125,8.59375,0.0,0.0,0.0
1664548995305,-0.13964844,-0.6748047,-0.82128906,-13.6875,-6.15625,9.8125,0.0,0.0,0.0
1664548995336,-0.22558594,-0.6972656,-0.7548828,22.46875,-19.46875,5.46875,0.0,0.0,0.0
1664548995366,-0.16210938,-0.7685547,-0.86328125,54.5,-27.21875,4.5625,0.0,0.0,0.0
1664548995445,-0.23632812,-0.81640625,-0.75683594,128.21875,-40.28125,6.9375,0.0,0.0,0.0
1664548995475,-0.17089844,-0.9326172,-0.70996094,188.03125,-66.59375,9.09375,0.0,0.0,0.0
1664548995547,-0.26757812,-0.89941406,-0.49414062,204.65625,-85.5,10.40625,0.0,0.0,0.0
1664548995589,-0.28515625,-0.9970703,-0.31054688,180.21875,-85.875,15.71875,0.0,0.0,0.0
1664548995621,-0.3828125,-0.875,-0.1875,152.8125,-99.0625,29.90625,-59.5625,-93.5625,-111.375
1664548995652,-0.39257812,-0.91308594,9.765625E-4,149.71875,-86.40625,23.0,0.0,0.0,0.0
1664548995714,-0.34472656,-0.9472656,0.044921875,152.8125,-81.71875,23.0625,0.0,0.0,0.0
1664548995754,-0.38867188,-0.9277344,0.19042969,158.4375,-75.125,22.09375,0.0,0.0,0.0
1664548995776,-0.11035156,-0.7158203,0.34375,142.15625,-66.21875,21.21875,0.0,0.0,0.0
1664548995809,-0.1171875,-0.72265625,0.47265625,113.09375,-43.5,2.25,0.0,0.0,0.0
1664548995836,-0.064453125,-0.74609375,0.62109375,100.46875,-23.96875,-3.0625,0.0,0.0,0.0
1664548995879,-0.37402344,-0.6591797,0.6777344,75.125,-21.28125,23.84375,0.0,0.0,0.0
1664548995943,-0.38476562,-0.5605469,0.6767578,53.40625,-9.6875,18.40625,0.0,0.0,0.0
1664548995987,-0.36914062,-0.6015625,0.7216797,50.90625,-10.96875,12.0,0.0,0.0,0.0
1664548996041,-0.27148438,-0.64160156,0.625,41.1875,-10.375,-0.5,0.0,0.0,0.0
1664548996073,-0.3046875,-0.77441406,0.75878906,45.71875,-14.15625,11.9375,0.0,0.0,0.0
1664548996106,-0.4033203,-0.6191406,0.6875,35.34375,-5.96875,3.53125,-55.375,-68.1875,-68.125
1664548996146,-0.22460938,-0.546875,0.6777344,42.0,-8.96875,-7.71875,0.0,0.0,0.0
1664548996205,-0.2861328,-0.53515625,0.9716797,31.1875,0.96875,6.875,0.0,0.0,0.0
1664548996214,-0.17089844,-0.46484375,0.79296875,3.90625,3.4375,-3.625,0.0,0.0,0.0
1664548996241,-0.20605469,-0.640625,0.81640625,9.46875,3.125,0.0,0.0,0.0,0.0
1664548996319,-0.2890625,-0.7519531,0.78027344,1.875,4.84375,5.0625,0.0,0.0,0.0
1664548996352,-0.35546875,-0.7451172,0.74121094,17.03125,-7.625,5.78125,0.0,0.0,0.0
1664548996371,-0.20703125,-0.7558594,0.8408203,26.0,-20.875,-0.5,0.0,0.0,0.0
1664548996401,-0.20019531,-0.6738281,0.82910156,41.875,-32.84375,-6.53125,0.0,0.0,0.0
1664548996421,0.001953125,-0.81640625,0.7988281,42.96875,-52.71875,-16.875,0.0,0.0,0.0
1664548996455,-0.36523438,-0.9941406,0.84765625,58.96875,-77.03125,-7.9375,0.0,0.0,0.0
1664548996495,-0.051757812,-0.671875,0.8496094,7.25,-101.8125,-22.40625,0.0,0.0,0.0
1664548996535,-0.032226562,-0.62109375,0.85058594,0.25,-79.46875,-35.65625,0.0,0.0,0.0
1664548996557,0.08984375,-0.92089844,0.82910156,-17.78125,-66.71875,-55.8125,-41.375,-57.875,-61.6875
1664548996608,0.034179688,-0.703125,0.7265625,-41.21875,-36.375,-68.0,0.0,0.0,0.0
1664548996652,0.01171875,-0.7685547,0.79003906,-37.71875,-10.0625,-65.125,0.0,0.0,0.0
1664548996676,0.009765625,-0.81347656,0.7314453,-19.84375,7.34375,-67.59375,0.0,0.0,0.0
1664548996761,0.041015625,-0.75390625,0.7246094,-20.4375,28.375,-65.4375,0.0,0.0,0.0
1664548996825,-0.15039062,-0.7636719,0.6933594,-10.375,51.40625,-84.4375,0.0,0.0,0.0
1664548996828,-0.022460938,-0.47265625,0.8251953,-22.34375,13.6875,-37.4375,0.0,0.0,0.0
1664548996876,0.24804688,-0.5957031,0.8105469,6.40625,36.6875,-16.8125,0.0,0.0,0.0
1664548996887,-0.20703125,-0.4814453,0.7109375,55.84375,69.21875,6.6875,0.0,0.0,0.0
1664548996913,-0.064453125,-0.20019531,0.7236328,119.1875,60.84375,56.3125,0.0,0.0,0.0
1664548996961,-0.59375,0.62109375,0.5917969,145.125,41.9375,114.59375,0.0,0.0,0.0
1664548996993,-0.5019531,0.53125,0.87402344,80.875,8.96875,96.40625,0.0,0.0,0.0
1664548997029,-0.12207031,0.24609375,1.0029297,-9.21875,4.59375,63.15625,-45.0,-50.8125,-63.0625
1664548997078,-0.10058594,-0.17578125,1.1279297,-30.65625,9.28125,31.0625,0.0,0.0,0.0
1664548997103,-0.18261719,-0.24609375,1.3212891,-4.65625,14.09375,-17.03125,0.0,0.0,0.0
1664548997108,-0.31152344,-0.17871094,1.1064453,32.84375,-36.90625,-37.0,0.0,0.0,0.0
1664548997143,-0.20996094,0.3076172,0.99609375,40.28125,-30.875,-20.21875,0.0,0.0,0.0
1664548997164,-0.31933594,-0.21386719,1.3388672,0.1875,-6.03125,-25.15625,0.0,0.0,0.0
1664548997193,-0.43066406,-0.41503906,1.109375,-12.09375,29.96875,-16.96875,0.0,0.0,0.0
1664548997234,-0.07324219,0.021484375,1.4853516,66.71875,67.28125,-31.875,0.0,0.0,0.0
1664548997258,0.26660156,-0.25976562,1.2373047,3.34375,78.6875,5.59375,0.0,0.0,0.0
1664548997279,0.19921875,-0.6484375,1.2685547,15.5625,96.4375,12.0,0.0,0.0,0.0
1664548997326,9.765625E-4,-0.47753906,1.2714844,50.28125,126.90625,-8.8125,0.0,0.0,0.0
1664548997357,-0.21484375,-0.3779297,1.0527344,57.125,107.78125,-12.09375,0.0,0.0,0.0
1664548997378,-0.2861328,-0.3359375,0.7763672,49.8125,122.4375,-32.125,0.0,0.0,0.0
1664548997457,-0.4248047,-0.13378906,0.7753906,40.59375,128.0,-20.84375,-64.8125,-42.125,-72.1875
1664548997485,-0.6113281,-0.10644531,0.8017578,32.71875,109.9375,-13.875,0.0,0.0,0.0
1664548997528,-0.6484375,-0.09277344,0.75683594,32.78125,93.5625,-1.71875,0.0,0.0,0.0
1664548997558,-0.7861328,0.12011719,0.6582031,55.78125,70.5,27.8125,0.0,0.0,0.0
1664548997606,-0.96191406,0.20507812,0.6113281,72.4375,57.1875,64.0625,0.0,0.0,0.0
1664548997639,-0.8886719,0.35839844,0.5527344,107.84375,25.65625,77.1875,0.0,0.0,0.0
1664548997692,-0.45410156,0.16015625,0.56152344,-11.71875,16.84375,94.53125,0.0,0.0,0.0
1664548997718,-0.6669922,0.12890625,0.4326172,-58.96875,-13.25,112.03125,0.0,0.0,0.0
1664548997749,-0.5996094,-0.053710938,-0.047851562,12.125,26.5,58.34375,0.0,0.0,0.0
1664548997798,-0.8486328,-0.0390625,0.19335938,16.40625,91.8125,78.40625,0.0,0.0,0.0
1664548997852,-0.37109375,0.4873047,0.111328125,98.6875,120.75,55.46875,0.0,0.0,0.0
1664548997901,-0.6279297,0.34375,0.0703125,40.46875,174.6875,42.34375,0.0,0.0,0.0
1664548997918,-0.46777344,0.33789062,0.10546875,-4.59375,250.6875,3.65625,-74.6875,-17.1875,-102.8125
1664548997957,-0.8310547,0.036132812,-0.31054688,-36.03125,298.28125,-11.71875,0.0,0.0,0.0
1664548997986,-1.9863281,0.45410156,0.4013672,36.1875,227.125,34.28125,0.0,0.0,0.0
1664548998040,-1.0341797,0.8642578,0.7314453,-111.8125,47.125,-25.96875,0.0,0.0,0.0
1664548998089,-0.7558594,0.4404297,0.20410156,31.5625,-87.875,32.40625,0.0,0.0,0.0
1664548998176,-0.81640625,0.19433594,-0.25,-65.0625,-76.90625,44.71875,0.0,0.0,0.0
1664548998200,-0.9453125,0.10253906,-0.27539062,-9.34375,7.46875,4.0,0.0,0.0,0.0
1664548998217,-0.8027344,0.125,-0.20507812,3.28125,26.6875,-0.375,0.0,0.0,0.0
1664548998254,-1.1699219,0.8564453,0.3671875,-58.71875,16.96875,-0.8125,0.0,0.0,0.0
1664548998293,-0.95410156,0.29785156,0.02734375,-87.53125,18.75,-10.6875,0.0,0.0,0.0
1664548998332,-0.9160156,0.11035156,0.095703125,-106.5,5.3125,0.53125,0.0,0.0,0.0
1664548998360,-0.9238281,0.09765625,-0.115234375,-70.875,4.46875,8.09375,0.0,0.0,0.0
1664548998432,-0.9746094,0.3125,0.16796875,-41.3125,3.375,-10.9375,0.0,0.0,0.0
1664548998447,-0.8359375,0.50683594,0.19726562,-66.96875,-9.9375,16.53125,-72.0,-16.0,-113.125
1664548998458,-0.8457031,0.32421875,0.040039062,-73.0625,3.1875,12.125,0.0,0.0,0.0
1664548998517,-0.8496094,0.2529297,0.09765625,-70.375,13.625,8.34375,0.0,0.0,0.0
1664548998563,-0.61816406,0.24804688,0.2939453,-47.78125,30.09375,2.84375,0.0,0.0,0.0
1664548998593,-1.1884766,0.31640625,0.19042969,-66.78125,35.03125,10.84375,0.0,0.0,0.0
1664548998648,-1.0488281,0.62402344,0.37597656,-36.375,19.125,7.84375,0.0,0.0,0.0
1664548998684,-0.5205078,0.09667969,0.34375,-13.9375,23.25,7.625,0.0,0.0,0.0
1664548998716,-1.3730469,0.26953125,0.1640625,4.6875,6.78125,14.03125,0.0,0.0,0.0
1664548998759,-0.8222656,0.42578125,0.32128906,33.625,-16.53125,-12.59375,0.0,0.0,0.0
1664548998791,-0.7919922,0.25195312,0.17089844,43.09375,-5.5625,-8.5625,0.0,0.0,0.0
1664548998889,-1.3193359,0.26660156,0.15136719,19.21875,-26.40625,7.84375,0.0,0.0,0.0
1664548998977,-0.9980469,0.2548828,0.09375,-3.78125,-32.15625,5.28125,0.0,0.0,0.0
1664548999015,-0.8457031,0.09277344,0.07324219,-23.4375,13.0,12.8125,-72.0,-14.9375,-105.9375
1664548999046,-0.6533203,0.083984375,0.14160156,4.8125,20.15625,33.96875,0.0,0.0,0.0
1664548999072,-0.9746094,0.35058594,0.22949219,5.3125,22.34375,59.25,0.0,0.0,0.0
1664548999090,-1.2578125,0.3046875,0.08691406,0.0,3.90625,53.15625,0.0,0.0,0.0
1664548999133,-1.3203125,0.37695312,0.46484375,7.4375,-10.625,19.28125,0.0,0.0,0.0
1664548999173,-1.1347656,0.7763672,0.43164062,-5.375,-31.65625,-12.71875,0.0,0.0,0.0
1664548999205,-1.0634766,0.5966797,0.42773438,-11.65625,-132.625,-14.96875,0.0,0.0,0.0
1664548999241,-0.79003906,0.7128906,0.49023438,-47.84375,-166.0625,-54.34375,0.0,0.0,0.0
1664548999312,-1.0322266,0.4716797,0.39453125,-66.96875,-138.53125,-84.125,0.0,0.0,0.0
1664548999342,-0.65527344,0.24121094,0.13671875,27.28125,-109.25,-96.9375,0.0,0.0,0.0
1664548999373,-0.46289062,0.4453125,0.064453125,0.78125,-43.15625,-89.0,0.0,0.0,0.0
1664548999398,-0.5839844,0.58691406,0.2919922,9.46875,-28.4375,-80.34375,0.0,0.0,0.0
1664548999423,-0.66308594,0.3984375,0.375,28.4375,-13.59375,-70.28125,0.0,0.0,0.0
1664548999445,-0.8457031,-0.009765625,0.5058594,25.5625,10.9375,-83.34375,-69.625,-22.75,-90.5
1664548999509,-0.8095703,0.13574219,0.765625,-54.4375,45.1875,-61.28125,0.0,0.0,0.0
1664548999538,-0.8466797,-0.14746094,0.53125,42.0625,16.25,-53.46875,0.0,0.0,0.0
1664548999580,-0.66308594,0.3720703,0.16699219,34.0,56.78125,-25.96875,0.0,0.0,0.0
1664548999658,-0.7763672,0.7578125,0.49414062,20.875,65.6875,-12.59375,0.0,0.0,0.0
1664548999686,-0.88183594,0.15429688,0.26953125,27.71875,79.59375,0.28125,0.0,0.0,0.0
1664548999718,-0.8310547,0.23535156,0.39257812,-38.40625,103.15625,-1.96875,0.0,0.0,0.0
1664548999755,-0.8417969,-0.028320312,0.111328125,-14.15625,123.3125,4.8125,0.0,0.0,0.0
1664548999773,-1.2949219,0.29003906,0.27246094,-42.375,95.34375,22.03125,0.0,0.0,0.0
1664548999804,-1.1337891,0.23925781,0.27929688,-30.34375,77.09375,6.9375,0.0,0.0,0.0
1664548999847,-1.0908203,-0.14746094,0.12695312,-25.875,55.3125,-12.28125,0.0,0.0,0.0
1664548999874,-0.89941406,-0.0126953125,-0.005859375,2.8125,32.125,-3.0625,0.0,0.0,0.0
1664548999900,-0.9375,0.22167969,-0.01171875,10.3125,26.8125,-6.4375,-80.6875,-27.4375,-113.0
1664548999960,-1.0986328,0.16601562,-0.026367188,6.65625,14.21875,-11.90625,0.0,0.0,0.0
1664549000007,-1.015625,0.083984375,-0.036132812,14.21875,-3.46875,-18.03125,0.0,0.0,0.0
1664549000042,-0.9433594,0.09082031,-0.080078125,19.34375,-9.09375,-19.125,0.0,0.0,0.0
1664549000078,-0.9345703,0.10449219,-0.076171875,17.75,-7.5625,-22.71875,0.0,0.0,0.0
1664549000136,-0.96875,0.15332031,0.123046875,2.8125,-14.65625,-23.34375,0.0,0.0,0.0
1664549000181,-1.1435547,0.20605469,0.18554688,2.25,-26.78125,-33.46875,0.0,0.0,0.0
1664549000257,-0.7763672,0.171875,0.28710938,9.75,-34.90625,-26.3125,0.0,0.0,0.0
1664549000293,-0.9921875,-0.078125,0.25878906,21.0625,-56.375,-22.46875,0.0,0.0,0.0
1664549000317,-0.85839844,-0.17675781,0.16601562,40.9375,-55.96875,-40.46875,0.0,0.0,0.0
1664549000402,-0.9667969,-0.0390625,0.1640625,36.75,-68.46875,-34.5,0.0,0.0,0.0
1664549000451,-0.8066406,0.046875,0.20214844,35.875,-73.34375,-47.0,0.0,0.0,0.0
1664549000501,-0.8183594,-0.025390625,0.19433594,33.3125,-91.59375,-49.8125,0.0,0.0,0.0
1664549000535,-0.92578125,-0.046875,0.23730469,22.15625,-125.84375,-67.71875,-83.375,-40.625,-100.875
1664549000562,-0.6796875,0.06933594,0.28222656,19.59375,-129.875,-50.375,0.0,0.0,0.0
1664549000596,-0.6347656,0.19921875,0.33007812,-3.84375,-147.46875,-33.875,0.0,0.0,0.0
1664549000649,-0.5078125,0.048828125,0.25097656,-39.125,-118.65625,-51.40625,0.0,0.0,0.0
1664549000672,-0.31054688,0.0859375,0.23730469,-47.5,-136.34375,-37.4375,0.0,0.0,0.0
1664549000699,-0.4169922,0.16503906,0.2578125,-57.4375,-122.0,8.59375,0.0,0.0,0.0
1664549000743,-0.2705078,-0.0068359375,0.33691406,-96.875,-112.0625,25.9375,0.0,0.0,0.0
1664549000794,-0.29785156,-0.36816406,0.07128906,-96.3125,-88.96875,47.59375,0.0,0.0,0.0
1664549000819,-0.30371094,-0.3876953,0.038085938,-104.25,-69.21875,36.84375,0.0,0.0,0.0
1664549000873,-0.051757812,-0.5917969,-0.32714844,-138.625,-29.03125,16.59375,0.0,0.0,0.0
1664549000909,-1.2802734,-0.47265625,1.9931641,-52.5,-136.03125,-50.5,0.0,0.0,0.0
1664549000915,-0.024414062,-1.984375,0.84375,-70.125,59.625,-462.40625,0.0,0.0,0.0
1664549000969,0.005859375,-0.015625,0.55566406,90.625,-129.75,-113.65625,-47.875,-76.9375,-72.9375
1664549001000,1.7177734,1.6611328,1.0302734,-153.25,123.0,36.1875,0.0,0.0,0.0
1664549001040,-0.83984375,-1.1962891,0.60546875,-32.40625,191.28125,173.9375,0.0,0.0,0.0
1664549001065,-0.8417969,-1.2841797,0.25976562,-221.5625,104.0,-41.40625,0.0,0.0,0.0
1664549001105,-0.55078125,-1.5253906,-0.29589844,-200.5625,107.625,-183.3125,0.0,0.0,0.0
1664549001131,0.06542969,-1.0917969,0.50097656,-121.03125,72.15625,-153.09375,0.0,0.0,0.0
1664549001180,-0.025390625,-0.9628906,0.03125,-76.78125,27.96875,-75.9375,0.0,0.0,0.0
1664549001213,-0.51171875,-1.2392578,-0.20996094,39.59375,9.21875,1.4375,0.0,0.0,0.0
1664549001227,-0.25683594,-1.2304688,0.123046875,48.5625,37.90625,-25.28125,0.0,0.0,0.0
1664549001277,-0.06347656,-1.1123047,0.030273438,36.75,18.875,-39.03125,0.0,0.0,0.0
1664549001312,0.3388672,-0.6269531,0.19628906,21.125,-16.78125,-21.75,0.0,0.0,0.0
1664549001349,0.37695312,-0.7207031,0.39257812,18.3125,-9.5,-22.0625,0.0,0.0,0.0
1664549001396,0.27734375,-1.1445312,0.4296875,-30.84375,8.5625,-32.0625,0.0,0.0,0.0
1664549001427,-0.01171875,-0.96875,0.14160156,-52.25,10.625,-17.59375,-43.9375,-96.6875,-94.375
1664549001475,-0.099609375,-0.72558594,0.13085938,-8.125,3.5,-8.3125,0.0,0.0,0.0
1664549001534,0.0,-0.82714844,0.078125,-36.25,-15.8125,7.3125,0.0,0.0,0.0
1664549001548,0.0126953125,-0.8984375,0.11425781,-31.4375,-26.1875,18.40625,0.0,0.0,0.0
1664549001583,0.08886719,-1.0849609,0.14550781,-24.84375,-19.65625,20.75,0.0,0.0,0.0
1664549001667,0.119140625,-1.0537109,0.07421875,-39.3125,-19.78125,20.25,0.0,0.0,0.0
1664549001701,0.01953125,-0.9658203,0.107421875,-51.34375,-16.09375,18.0,0.0,0.0,0.0
1664549001743,-0.03125,-1.0458984,-0.0546875,-59.625,-11.28125,13.40625,0.0,0.0,0.0
1664549001792,-0.15234375,-1.1552734,-0.0126953125,-29.90625,-26.46875,1.75,0.0,0.0,0.0
1664549001820,-0.060546875,-1.1640625,-0.25585938,-27.28125,-32.46875,-7.09375,0.0,0.0,0.0
1664549001845,0.052734375,-0.80566406,-0.11621094,25.375,-45.9375,7.96875,0.0,0.0,0.0
1664549001903,-0.001953125,-1.0566406,-0.068359375,74.09375,-63.40625,43.3125,0.0,0.0,0.0
1664549001930,-0.01171875,-1.1025391,0.045898438,92.59375,-79.09375,62.90625,-47.375,-97.75,-99.8125
1664549001969,0.001953125,-1.0361328,0.083984375,94.40625,-88.625,90.0,0.0,0.0,0.0
1664549002013,-0.2578125,-1.0986328,0.24023438,121.75,-93.125,89.40625,0.0,0.0,0.0
1664549002035,-0.2919922,-0.97753906,0.2685547,107.28125,-68.09375,53.625,0.0,0.0,0.0
1664549002068,-0.21972656,-0.96777344,0.46191406,102.78125,-61.28125,33.4375,0.0,0.0,0.0
1664549002125,-0.15820312,-0.7421875,0.46484375,89.46875,-36.5,27.34375,0.0,0.0,0.0
1664549002148,-0.12695312,-0.85839844,0.47070312,105.34375,-8.40625,15.4375,0.0,0.0,0.0
1664549002188,-0.30371094,-0.85839844,0.484375,115.09375,-3.84375,5.53125,0.0,0.0,0.0
1664549002251,-0.25390625,-0.82714844,0.6777344,114.5625,2.8125,-27.0,0.0,0.0,0.0
1664549002276,-0.095703125,-0.61621094,0.6689453,88.96875,3.25,-21.0625,0.0,0.0,0.0
1664549002331,-0.13476562,-0.4267578,0.7871094,80.3125,-15.5625,24.75,0.0,0.0,0.0
1664549002416,-0.21972656,-0.5,0.8769531,72.1875,-34.1875,45.34375,0.0,0.0,0.0
1664549002443,-0.024414062,-0.85253906,0.83203125,58.65625,12.875,23.125,0.0,0.0,0.0
1664549002471,-0.025390625,-0.5810547,0.8701172,32.15625,-19.78125,70.1875,-49.0625,-63.4375,-63.1875
1664549002529,-0.14746094,-0.8378906,0.8642578,45.40625,-45.53125,85.1875,0.0,0.0,0.0
1664549002543,-0.26367188,-0.40820312,0.9609375,56.6875,-20.1875,74.875,0.0,0.0,0.0
1664549002578,-0.38476562,-0.22265625,0.68066406,12.1875,-22.75,74.5625,0.0,0.0,0.0
1664549002632,-0.31152344,-0.56640625,0.71191406,-35.09375,-8.15625,72.25,0.0,0.0,0.0
1664549002666,-0.2734375,-0.49316406,0.8144531,-38.09375,-7.0625,66.4375,0.0,0.0,0.0
1664549002733,-0.2919922,-0.38378906,1.0634766,-37.96875,-14.46875,69.4375,0.0,0.0,0.0
1664549002761,-0.29101562,-0.45507812,1.0029297,-8.0,-14.9375,62.65625,0.0,0.0,0.0
1664549002788,-0.27246094,-0.3251953,0.91015625,17.03125,-12.125,61.75,0.0,0.0,0.0
1664549002817,-0.28027344,-0.328125,0.83203125,15.9375,-0.46875,57.1875,0.0,0.0,0.0
1664549002860,-0.34472656,-0.2861328,0.86816406,18.1875,-4.5625,47.71875,0.0,0.0,0.0
1664549002896,-0.1875,-0.26660156,0.9003906,22.28125,1.46875,38.3125,0.0,0.0,0.0
1664549002931,-0.24511719,-0.23339844,0.9013672,18.125,4.59375,35.9375,-48.0,-50.0625,-60.5
1664549002976,-0.2783203,-0.2529297,0.82910156,26.375,13.0625,22.3125,0.0,0.0,0.0
1664549003001,-0.35058594,-0.19042969,0.88183594,22.09375,12.40625,24.9375,0.0,0.0,0.0
1664549003026,-0.4580078,-0.16308594,0.8808594,17.625,9.71875,24.8125,0.0,0.0,0.0
1664549003115,-0.36523438,-0.26464844,0.87109375,19.53125,12.875,17.4375,0.0,0.0,0.0
1664549003131,-0.3642578,-0.25585938,0.9277344,19.09375,13.3125,19.75,0.0,0.0,0.0
1664549003178,-0.43066406,-0.24804688,0.8779297,20.4375,19.71875,18.65625,0.0,0.0,0.0
1664549003227,-0.45410156,-0.20605469,0.89160156,17.625,21.90625,21.53125,0.0,0.0,0.0
1664549003264,-0.47851562,-0.16699219,0.88183594,17.8125,28.5625,20.5625,0.0,0.0,0.0
1664549003281,-0.49609375,-0.15332031,0.8232422,18.0,30.28125,21.40625,0.0,0.0,0.0
1664549003347,-0.5917969,0.07714844,0.8457031,-3.53125,23.4375,25.6875,0.0,0.0,0.0
1664549003371,-0.5234375,0.057617188,0.9082031,-3.4375,29.0625,6.34375,0.0,0.0,0.0
1664549003401,-0.5048828,-0.14746094,0.8857422,34.125,23.25,6.6875,0.0,0.0,0.0
1664549003441,-0.4794922,0.0029296875,0.7050781,64.25,11.46875,-1.84375,-56.375,-38.1875,-67.6875
1664549003465,-0.5546875,-0.052734375,0.82128906,40.65625,2.5,-0.125,0.0,0.0,0.0
1664549003511,-0.63183594,0.028320312,0.66503906,35.53125,-13.65625,7.4375,0.0,0.0,0.0
1664549003579,-0.54589844,-0.12597656,0.87402344,16.28125,-13.71875,15.0625,0.0,0.0,0.0
1664549003601,-0.5546875,-0.16503906,0.91015625,-10.4375,-20.8125,13.96875,0.0,0.0,0.0
1664549003641,-0.55078125,-0.15527344,0.90722656,-4.34375,-6.09375,19.8125,0.0,0.0,0.0
1664549003708,-0.5517578,-0.11425781,0.953125,9.09375,1.46875,21.40625,0.0,0.0,0.0
1664549003730,-0.41308594,0.025390625,0.7763672,25.125,8.375,13.46875,0.0,0.0,0.0
1664549003751,-0.5058594,0.12109375,0.8417969,29.0,-12.5625,30.8125,0.0,0.0,0.0
1664549003807,-0.43652344,-0.02734375,0.8535156,30.5,-21.78125,41.125,0.0,0.0,0.0
1664549003849,-0.40722656,-0.13867188,0.90625,32.46875,-23.5,49.4375,0.0,0.0,0.0
1664549003860,-0.5410156,0.040039062,0.92285156,51.3125,-22.46875,48.9375,0.0,0.0,0.0
1664549003936,-0.79003906,0.6357422,0.76171875,68.46875,-16.34375,25.875,-47.875,-24.4375,-68.125
1664549003962,-0.23535156,0.40527344,0.89160156,42.71875,1.09375,24.875,0.0,0.0,0.0
1664549003983,-0.4326172,-0.041015625,1.0205078,-21.78125,13.96875,32.40625,0.0,0.0,0.0
1664549004045,-0.4296875,0.17773438,0.7363281,44.84375,24.40625,2.96875,0.0,0.0,0.0
1664549004079,-0.23925781,0.6425781,0.80859375,48.75,9.15625,9.9375,0.0,0.0,0.0
1664549004102,-0.59375,0.41601562,0.8808594,-6.78125,12.875,28.625,0.0,0.0,0.0
1664549004180,-0.5126953,0.3408203,0.8144531,2.0,20.9375,7.96875,0.0,0.0,0.0
1664549004202,-0.3671875,0.31933594,0.7861328,21.0625,21.25,-1.125,0.0,0.0,0.0
1664549004236,-0.4873047,0.36132812,0.84277344,-2.9375,15.21875,12.375,0.0,0.0,0.0
